datID sessionID task diff block trial bigL smallL resp rt
1 48 0 0 0 0 0 0 0 0.54
2 48 0 0 0 1 1 0 0 0.444
3 48 0 0 0 2 0 1 1 0.641
4 48 0 0 0 3 1 1 1 0.64
5 48 0 1 0 0 1 0 1 1.308
6 48 0 1 0 1 1 1 1 0.444
7 48 0 1 0 2 0 1 0 0.517
8 48 0 1 0 3 0 0 0 0.366
9 48 0 2 0 0 1 0 1 0.665
10 48 0 2 0 1 1 1 0 0.717
11 48 0 2 0 2 0 0 0 0.615
12 48 0 2 0 3 0 1 0 0.524
13 48 1 0 0 0 1 1 1 1.211
14 48 1 0 0 1 1 0 0 0.573
15 48 1 0 0 2 0 0 0 0.618
16 48 1 0 0 3 0 1 1 0.558
17 48 1 1 0 0 1 0 0 1.272
18 48 1 1 0 1 1 1 1 0.508
19 48 1 1 0 2 0 1 1 0.812
20 48 1 1 0 3 0 0 0 0.46
21 48 1 2 0 0 0 1 1 0.73
22 48 1 2 0 1 1 0 0 1.519
23 48 1 2 0 2 1 1 1 0.555
24 48 1 2 0 3 0 0 0 0.69
25 49 0 0 0 0 0 0 0 0.504
26 49 0 0 0 1 0 0 0 0.395
27 49 0 0 0 2 1 0 1 0.43
28 49 0 0 0 3 0 1 1 0.431
29 49 0 0 0 4 0 0 0 0.531
30 49 0 0 0 5 1 1 1 0.527
31 49 0 0 0 6 0 0 0 0.525
32 49 0 0 0 7 0 1 0 0.711
33 49 0 0 1 8 1 1 1 0.728
34 49 0 0 1 9 0 1 0 0.571
35 49 0 0 1 10 0 0 0 0.401
36 49 0 0 1 11 0 1 1 0.447
37 49 0 0 1 12 1 0 0 0.562
38 49 0 0 1 13 0 1 0 0.624
39 49 0 0 1 14 1 0 1 0.669
40 49 0 0 1 15 1 1 0 0.558
41 49 0 0 2 16 1 1 1 0.572
42 49 0 0 2 17 1 1 1 0.476
43 49 0 0 2 18 1 0 0 0.51
44 49 0 0 2 19 1 0 1 0.754
45 49 0 1 0 0 0 1 0 1.639
46 49 0 1 0 1 1 1 1 0.508
47 49 0 1 0 2 0 1 1 0.492
48 49 0 1 0 3 0 1 0 0.624
49 49 0 1 0 4 0 0 0 0.541
50 49 0 1 0 5 0 0 0 0.493
51 49 0 1 0 6 0 0 0 0.478
52 49 0 1 0 7 1 0 1 0.608
53 49 0 1 1 8 0 1 0 0.78
54 49 0 1 1 9 1 1 1 0.46
55 49 0 1 1 10 1 1 1 0.492
56 49 0 1 1 11 1 0 0 0.556
57 49 0 1 1 12 0 0 0 0.64
58 49 0 1 1 13 1 0 1 0.749
59 49 0 1 1 14 1 1 1 0.574
60 49 0 1 1 15 1 0 1 0.668
61 49 0 1 2 16 0 0 0 0.586
62 49 0 1 2 17 1 0 1 0.607
63 49 0 1 2 18 1 1 1 0.462
64 49 0 1 2 19 0 1 0 0.56
65 49 0 2 0 0 0 0 0 2.252
66 49 0 2 0 1 0 0 0 1.549
67 49 0 2 0 2 1 1 1 0.688
68 49 0 2 0 3 1 0 1 0.765
69 49 0 2 0 4 0 1 0 0.67
70 49 0 2 0 5 1 1 1 0.607
71 49 0 2 0 6 0 1 0 0.684
72 49 0 2 0 7 1 1 1 0.654
73 49 0 2 1 8 1 1 1 0.505
74 49 0 2 1 9 1 0 1 0.714
75 49 0 2 1 10 1 0 1 0.606
76 49 0 2 1 11 0 1 0 0.651
77 49 0 2 1 12 1 0 1 0.702
78 49 0 2 1 13 0 0 0 0.576
79 49 0 2 1 14 1 0 1 0.75
80 49 0 2 1 15 0 0 0 1.149
81 49 0 2 2 16 1 1 1 0.668
82 49 0 2 2 17 0 1 0 0.527
83 49 0 2 2 18 0 1 0 0.524
84 49 0 2 2 19 0 0 1 0.605
85 49 1 0 0 0 1 1 1 1.401
86 49 1 0 0 1 0 1 1 0.475
87 49 1 0 0 2 1 1 1 0.56
88 49 1 0 0 3 1 0 0 0.542
89 49 1 0 0 4 0 1 0 0.511
90 49 1 0 0 5 0 0 0 0.611
91 49 1 0 0 6 1 1 1 0.432
92 49 1 0 0 7 1 0 0 0.543
93 49 1 0 1 8 0 1 1 0.586
94 49 1 0 1 9 1 0 0 0.607
95 49 1 0 1 10 1 1 1 0.541
96 49 1 0 1 11 1 0 0 0.589
97 49 1 0 1 12 1 0 0 0.684
98 49 1 0 1 13 0 0 0 0.497
99 49 1 0 1 14 1 1 1 0.509
100 49 1 0 1 15 0 0 1 0.477
101 49 1 0 2 16 0 0 0 0.683
102 49 1 0 2 17 0 1 1 0.413
103 49 1 0 2 18 0 1 1 0.476
104 49 1 0 2 19 0 0 0 0.765
105 49 1 1 0 0 1 0 0 0.956
106 49 1 1 0 1 1 1 1 0.636
107 49 1 1 0 2 0 1 1 0.656
108 49 1 1 0 3 1 0 0 0.427
109 49 1 1 0 4 1 1 0 0.461
110 49 1 1 0 5 0 1 1 0.785
111 49 1 1 0 6 0 0 0 0.416
112 49 1 1 0 7 0 0 1 0.991
113 49 1 1 1 8 0 1 1 0.843
114 49 1 1 1 9 0 0 0 0.795
115 49 1 1 1 10 1 0 0 0.574
116 49 1 1 1 11 0 1 1 0.637
117 49 1 1 1 12 1 1 1 0.721
118 49 1 1 1 13 0 0 0 0.523
119 49 1 1 1 14 0 1 0 0.562
120 49 1 1 1 15 1 0 0 0.8
121 49 1 1 2 16 1 1 1 0.665
122 49 1 1 2 17 1 0 0 0.845
123 49 1 1 2 18 1 1 1 0.493
124 49 1 1 2 19 0 0 0 0.623
125 49 1 2 0 0 0 1 1 1.02
126 49 1 2 0 1 1 1 1 0.747
127 49 1 2 0 2 0 0 0 0.733
128 49 1 2 0 3 0 1 1 0.91
129 49 1 2 0 4 1 0 0 0.957
130 49 1 2 0 5 1 0 0 0.701
131 49 1 2 0 6 0 0 1 0.638
132 49 1 2 0 7 0 0 0 0.596
133 49 1 2 1 8 0 1 1 0.426
134 49 1 2 1 9 1 1 1 0.686
135 49 1 2 1 10 1 0 0 0.479
136 49 1 2 1 11 0 1 1 0.717
137 49 1 2 1 12 1 1 1 0.591
138 49 1 2 1 13 1 0 0 0.461
139 49 1 2 1 14 1 1 0 0.56
140 49 1 2 1 15 1 0 0 0.465
141 49 1 2 2 16 0 0 0 0.619
142 49 1 2 2 17 1 1 1 0.399
143 49 1 2 2 18 0 0 0 0.461
144 49 1 2 2 19 0 1 1 0.429
145 50 0 0 0 0 0 0 0 1.562
146 50 0 0 0 1 1 0 1 1.069
147 50 0 0 0 2 1 1 1 0.675
148 50 0 0 0 3 1 0 1 0.796
149 50 0 0 0 4 1 1 1 0.699
150 50 0 0 0 5 0 1 0 0.86
151 50 0 0 0 6 0 0 0 0.669
152 50 0 0 0 7 1 1 1 0.808
153 50 0 0 1 8 0 0 0 0.76
154 50 0 0 1 9 1 1 1 0.622
155 50 0 0 1 10 1 0 0 0.863
156 50 0 0 1 11 1 1 1 1.84
157 50 0 0 1 12 0 0 0 0.605
158 50 0 0 1 13 1 0 1 0.986
159 50 0 0 1 14 0 1 0 0.849
160 50 0 0 1 15 0 0 0 0.817
161 50 0 0 2 16 0 1 0 0.633
162 50 0 0 2 17 0 1 0 0.528
163 50 0 0 2 18 0 1 0 0.591
164 50 0 0 2 19 1 0 0 0.604
165 50 0 1 0 0 1 0 1 1.033
166 50 0 1 0 1 0 0 0 0.751
167 50 0 1 0 2 0 1 0 0.846
168 50 0 1 0 3 0 0 0 0.701
169 50 0 1 0 4 0 0 0 0.673
170 50 0 1 0 5 1 1 1 0.732
171 50 0 1 0 6 1 0 1 0.91
172 50 0 1 0 7 0 0 0 0.765
173 50 0 1 1 8 1 1 1 0.684
174 50 0 1 1 9 1 1 1 0.543
175 50 0 1 1 10 1 0 1 0.695
176 50 0 1 1 11 1 0 1 0.67
177 50 0 1 1 12 0 0 0 0.592
178 50 0 1 1 13 0 1 0 0.713
179 50 0 1 1 14 1 0 1 0.7
180 50 0 1 1 15 0 1 1 0.829
181 50 0 1 2 16 1 1 1 0.861
182 50 0 1 2 17 1 1 1 0.556
183 50 0 1 2 18 0 1 0 0.673
184 50 0 1 2 19 0 1 0 0.584
185 50 0 2 0 0 1 1 1 1.083
186 50 0 2 0 1 1 1 1 0.592
187 50 0 2 0 2 1 0 1 0.859
188 50 0 2 0 3 0 0 0 1.215
189 50 0 2 0 4 1 1 1 0.736
190 50 0 2 0 5 0 0 0 0.682
191 50 0 2 0 6 1 0 1 0.853
192 50 0 2 0 7 0 1 0 0.754
193 50 0 2 1 8 0 1 0 0.859
194 50 0 2 1 9 0 0 1 0.956
195 50 0 2 1 10 0 1 0 0.864
196 50 0 2 1 11 0 0 0 0.83
197 50 0 2 1 12 0 0 0 0.894
198 50 0 2 1 13 1 0 1 1.148
199 50 0 2 1 14 1 0 1 0.863
200 50 0 2 1 15 1 0 1 0.653
201 50 0 2 2 16 0 1 0 0.827
202 50 0 2 2 17 0 1 0 0.75
203 50 0 2 2 18 1 1 1 0.813
204 50 0 2 2 19 1 1 1 0.653
205 50 1 0 0 0 1 1 1 1.304
206 50 1 0 0 1 1 0 0 0.65
207 50 1 0 0 2 1 0 0 0.543
208 50 1 0 0 3 1 1 1 0.523
209 50 1 0 0 4 0 0 0 0.554
210 50 1 0 0 5 1 1 1 0.599
211 50 1 0 0 6 0 0 0 0.495
212 50 1 0 0 7 1 0 0 0.62
213 50 1 0 1 8 0 1 1 0.635
214 50 1 0 1 9 0 1 1 0.527
215 50 1 0 1 10 1 0 0 0.587
216 50 1 0 1 11 1 1 1 0.634
217 50 1 0 1 12 0 0 0 0.479
218 50 1 0 1 13 1 0 0 0.684
219 50 1 0 1 14 0 0 0 0.606
220 50 1 0 1 15 0 1 1 0.556
221 50 1 0 2 16 0 1 1 0.757
222 50 1 0 2 17 1 1 1 0.651
223 50 1 0 2 18 0 0 0 0.641
224 50 1 0 2 19 0 1 1 0.669
225 50 1 1 0 0 1 1 1 0.857
226 50 1 1 0 1 0 1 1 0.945
227 50 1 1 0 2 0 0 0 0.734
228 50 1 1 0 3 0 0 0 0.495
229 50 1 1 0 4 1 1 1 0.668
230 50 1 1 0 5 1 0 0 0.606
231 50 1 1 0 6 1 1 1 0.603
232 50 1 1 0 7 0 0 0 0.559
233 50 1 1 1 8 0 1 0 0.533
234 50 1 1 1 9 1 0 1 1.075
235 50 1 1 1 10 1 0 0 1.088
236 50 1 1 1 11 0 1 1 0.653
237 50 1 1 1 12 0 1 1 0.561
238 50 1 1 1 13 0 0 0 0.523
239 50 1 1 1 14 0 0 0 0.796
240 50 1 1 1 15 1 0 0 0.505
241 50 1 1 2 16 1 0 0 0.508
242 50 1 1 2 17 1 1 1 0.458
243 50 1 1 2 18 0 1 1 0.54
244 50 1 1 2 19 1 1 1 0.634
245 50 1 2 0 0 0 1 1 1.723
246 50 1 2 0 1 0 0 0 0.892
247 50 1 2 0 2 1 1 1 0.797
248 50 1 2 0 3 1 0 0 0.519
249 50 1 2 0 4 1 1 1 0.622
250 50 1 2 0 5 0 1 1 0.641
251 50 1 2 0 6 0 0 0 0.604
252 50 1 2 0 7 1 0 0 0.634
253 50 1 2 1 8 0 1 1 0.97
254 50 1 2 1 9 1 1 1 0.497
255 50 1 2 1 10 1 0 0 0.492
256 50 1 2 1 11 0 1 1 0.651
257 50 1 2 1 12 0 0 0 0.462
258 50 1 2 1 13 1 1 1 0.525
259 50 1 2 1 14 0 1 1 0.699
260 50 1 2 1 15 1 0 0 0.581
261 50 1 2 2 16 1 0 0 0.615
262 50 1 2 2 17 1 1 1 0.509
263 50 1 2 2 18 0 0 0 0.522
264 50 1 2 2 19 0 0 0 0.611
265 53 0 0 0 0 1 1 1 1.259
266 53 0 0 0 1 1 0 1 1.005
267 53 0 0 0 2 1 1 1 0.812
268 53 0 0 0 3 0 1 0 0.67
269 53 0 0 0 4 0 1 0 0.608
270 53 0 0 0 5 1 1 1 0.667
271 53 0 0 0 6 0 0 0 0.608
272 53 0 0 0 7 1 1 1 0.781
273 53 0 0 0 8 0 1 0 0.59
274 53 0 0 0 9 0 0 0 0.701
275 53 0 0 0 10 1 0 0 0.518
276 53 0 0 0 11 1 0 1 1.108
277 53 0 0 0 12 0 0 0 0.732
278 53 0 0 0 13 0 1 0 0.688
279 53 0 0 0 14 1 1 1 0.699
280 53 0 0 0 15 1 0 0 0.767
281 53 0 0 0 16 0 0 0 0.947
282 53 0 0 0 17 0 0 0 0.623
283 53 0 0 0 18 1 0 1 0.923
284 53 0 0 0 19 0 1 0 1.005
285 53 0 1 0 0 0 1 0 1.736
286 53 0 1 0 1 1 1 1 0.844
287 53 0 1 0 2 0 0 0 0.714
288 53 0 1 0 3 0 0 0 0.655
289 53 0 1 0 4 1 1 1 0.699
290 53 0 1 0 5 0 0 0 0.765
291 53 0 1 0 6 1 1 1 0.781
292 53 0 1 0 7 1 0 1 0.863
293 53 0 1 0 8 0 1 0 0.83
294 53 0 1 0 9 0 1 0 0.652
295 53 0 1 0 10 1 0 1 1.648
296 53 0 1 0 11 1 0 1 0.816
297 53 0 1 0 12 0 0 0 0.719
298 53 0 1 0 13 1 1 1 0.784
299 53 0 1 0 14 1 1 1 0.623
300 53 0 1 0 15 0 0 0 0.699
301 53 0 1 0 16 1 0 1 0.654
302 53 0 1 0 17 0 1 0 0.923
303 53 0 1 0 18 1 0 1 1.275
304 53 0 1 0 19 0 1 0 0.716
305 53 0 2 0 0 1 0 1 1.483
306 53 0 2 0 1 0 0 1 1.432
307 53 0 2 0 2 1 1 1 1.09
308 53 0 2 0 3 0 0 0 0.811
309 53 0 2 0 4 1 0 1 2.786
310 53 0 2 0 5 1 0 1 0.927
311 53 0 2 0 6 0 1 0 0.924
312 53 0 2 0 7 0 1 1 1.275
313 53 0 2 0 8 0 0 0 0.961
314 53 0 2 0 9 1 0 1 1.341
315 53 0 2 0 10 1 1 1 1.005
316 53 0 2 0 11 1 0 0 1.677
317 53 0 2 0 12 0 1 0 1.251
318 53 0 2 0 13 1 1 1 0.97
319 53 0 2 0 14 1 1 1 1.067
320 53 0 2 0 15 0 1 0 0.799
321 53 0 2 0 16 0 1 0 1.502
322 53 0 2 0 17 0 0 0 1.435
323 53 0 2 0 18 1 1 1 0.971
324 53 0 2 0 19 0 0 0 1.26
325 53 1 0 0 0 0 1 1 0.761
326 53 1 0 0 1 1 0 0 0.735
327 53 1 0 0 2 0 1 1 0.528
328 53 1 0 0 3 1 1 1 0.799
329 53 1 0 0 4 1 0 0 0.463
330 53 1 0 0 5 1 0 0 0.525
331 53 1 0 0 6 1 1 1 0.493
332 53 1 0 0 7 0 0 0 0.542
333 53 1 0 0 8 0 0 0 0.526
334 53 1 0 0 9 0 0 0 0.527
335 53 1 0 0 10 0 1 1 0.462
336 53 1 0 0 11 1 1 1 0.48
337 53 1 0 0 12 1 0 0 0.411
338 53 1 0 0 13 0 1 1 0.543
339 53 1 0 0 14 0 0 0 0.428
340 53 1 0 0 15 1 1 1 0.427
341 53 1 0 0 16 0 0 0 0.54
342 53 1 0 0 17 1 1 1 0.29
343 53 1 0 0 18 0 1 0 0.475
344 53 1 0 0 19 1 0 0 0.76
345 53 1 1 0 0 1 0 0 1.254
346 53 1 1 0 1 1 1 1 0.747
347 53 1 1 0 2 0 1 0 1.292
348 53 1 1 0 3 1 1 1 0.897
349 53 1 1 0 4 0 1 1 0.686
350 53 1 1 0 5 1 0 0 0.671
351 53 1 1 0 6 1 0 0 0.588
352 53 1 1 0 7 1 1 1 0.481
353 53 1 1 0 8 0 0 0 0.91
354 53 1 1 0 9 0 1 1 0.524
355 53 1 1 0 10 1 1 1 1.084
356 53 1 1 0 11 1 0 0 0.607
357 53 1 1 0 12 0 0 0 0.492
358 53 1 1 0 13 0 0 0 0.362
359 53 1 1 0 14 1 0 0 0.67
360 53 1 1 0 15 0 1 1 0.474
361 53 1 1 0 16 0 1 1 0.499
362 53 1 1 0 17 0 0 0 0.462
363 53 1 1 0 18 1 1 1 0.574
364 53 1 1 0 19 0 0 0 0.748
365 53 1 2 0 0 0 1 1 0.907
366 53 1 2 0 1 0 0 0 0.686
367 53 1 2 0 2 0 0 0 0.447
368 53 1 2 0 3 1 0 0 0.443
369 53 1 2 0 4 1 0 0 0.494
370 53 1 2 0 5 0 1 1 0.444
371 53 1 2 0 6 1 0 0 0.524
372 53 1 2 0 7 1 1 1 0.524
373 53 1 2 0 8 1 1 1 0.572
374 53 1 2 0 9 0 0 0 0.524
375 53 1 2 0 10 0 0 0 0.547
376 53 1 2 0 11 0 1 1 0.476
377 53 1 2 0 12 1 1 1 0.493
378 53 1 2 0 13 0 0 0 0.524
379 53 1 2 0 14 1 0 0 3.917
380 53 1 2 0 15 1 1 1 1.839
381 53 1 2 0 16 1 0 0 0.508
382 53 1 2 0 17 0 1 1 0.717
383 53 1 2 0 18 1 1 1 0.463
384 53 1 2 0 19 0 1 1 0.43
385 54 0 0 0 0 0 1 0 1.941
386 54 0 0 0 1 1 0 0 5.579
387 54 0 0 0 2 1 0 1 3.154
388 54 0 0 0 3 1 1 1 1.428
389 54 0 0 0 4 1 1 1 1.438
390 54 0 0 0 5 1 0 1 0.875
391 54 0 0 0 6 1 1 1 0.892
392 54 0 0 0 7 0 1 0 1.356
393 54 0 0 0 8 0 0 0 1.037
394 54 0 0 0 9 0 0 0 0.84
395 54 0 0 0 10 0 0 0 0.781
396 54 0 0 0 11 0 1 0 0.734
397 54 0 0 0 12 0 0 0 0.767
398 54 0 0 0 13 0 0 0 0.685
399 54 0 0 0 14 1 0 0 0.766
400 54 0 0 0 15 1 0 1 1.698
401 54 0 0 0 16 1 1 1 0.935
402 54 0 0 0 17 0 1 0 0.688
403 54 0 0 0 18 1 1 1 1.227
404 54 0 0 0 19 0 1 0 0.718
405 54 0 1 0 0 1 0 0 6.028
406 54 0 1 0 1 0 0 0 2.117
407 54 0 1 0 2 1 1 1 1.25
408 54 0 1 0 3 0 1 0 1.841
409 54 0 1 0 4 1 0 1 1.566
410 54 0 1 0 5 1 1 1 0.575
411 54 0 1 0 6 1 1 1 0.522
412 54 0 1 0 7 1 1 1 0.507
413 54 0 1 0 8 0 0 0 0.779
414 54 0 1 0 9 0 1 0 0.635
415 54 0 1 0 10 0 1 0 0.607
416 54 0 1 0 11 0 1 0 0.732
417 54 0 1 0 12 0 0 0 0.558
418 54 0 1 0 13 0 1 0 0.602
419 54 0 1 0 14 0 0 0 0.623
420 54 0 1 0 15 0 0 0 0.809
421 54 0 1 0 16 1 1 1 1.131
422 54 0 1 0 17 1 0 0 1.07
423 54 0 1 0 18 1 0 1 1.807
424 54 0 1 0 19 1 0 0 1.694
425 54 0 2 0 0 0 0 0 1.177
426 54 0 2 0 1 1 1 1 1.132
427 54 0 2 0 2 1 1 1 0.862
428 54 0 2 0 3 1 1 1 0.797
429 54 0 2 0 4 0 1 0 1.325
430 54 0 2 0 5 1 0 1 1.55
431 54 0 2 0 6 1 1 1 1.696
432 54 0 2 0 7 0 1 0 1.426
433 54 0 2 0 8 1 1 1 1.437
434 54 0 2 0 9 0 1 0 1.098
435 54 0 2 0 10 0 1 0 1.965
436 54 0 2 0 11 0 0 0 0.736
437 54 0 2 0 12 1 0 1 1.023
438 54 0 2 0 13 0 0 0 0.825
439 54 0 2 0 14 0 0 0 0.651
440 54 0 2 0 15 0 1 0 1.167
441 54 0 2 0 16 1 0 1 1.239
442 54 0 2 0 17 0 0 0 0.762
443 54 0 2 0 18 1 0 0 1.42
444 54 0 2 0 19 1 0 1 0.495
445 54 1 0 0 0 0 1 1 3.26
446 54 1 0 0 1 1 0 1 1.036
447 54 1 0 0 2 1 1 1 1.716
448 54 1 0 0 3 0 1 1 1.322
449 54 1 0 0 4 0 0 0 1.901
450 54 1 0 0 5 0 0 0 0.475
451 54 1 0 0 6 0 1 1 0.54
452 54 1 0 0 7 1 1 1 1.69
453 54 1 0 0 8 0 1 1 0.714
454 54 1 0 0 9 0 0 0 0.7
455 54 1 0 0 10 1 1 1 0.751
456 54 1 0 0 11 0 1 1 0.557
457 54 1 0 0 12 1 0 0 0.634
458 54 1 0 0 13 1 0 0 0.366
459 54 1 0 0 14 1 0 0 0.462
460 54 1 0 0 15 1 0 0 0.411
461 54 1 0 0 16 0 0 0 0.413
462 54 1 0 0 17 0 0 0 0.381
463 54 1 0 0 18 1 1 1 0.702
464 54 1 0 0 19 1 1 1 0.446
465 54 1 1 0 0 1 0 0 1.382
466 54 1 1 0 1 1 1 1 0.656
467 54 1 1 0 2 0 1 1 0.604
468 54 1 1 0 3 0 1 1 0.386
469 54 1 1 0 4 0 0 0 0.446
470 54 1 1 0 5 1 0 0 0.896
471 54 1 1 0 6 0 1 1 0.923
472 54 1 1 0 7 0 0 0 0.522
473 54 1 1 0 8 1 1 1 0.609
474 54 1 1 0 9 1 1 1 0.587
475 54 1 1 0 10 0 0 0 0.559
476 54 1 1 0 11 0 0 0 0.363
477 54 1 1 0 12 0 1 0 0.269
478 54 1 1 0 13 0 0 0 0.561
479 54 1 1 0 14 1 0 0 0.557
480 54 1 1 0 15 1 0 0 0.491
481 54 1 1 0 16 1 1 1 0.526
482 54 1 1 0 17 0 1 1 0.396
483 54 1 1 0 18 1 1 1 0.35
484 54 1 1 0 19 1 0 0 0.495
485 54 1 2 0 0 1 0 0 2.553
486 54 1 2 0 1 1 1 1 0.941
487 54 1 2 0 2 0 1 0 0.54
488 54 1 2 0 3 1 1 1 0.464
489 54 1 2 0 4 0 1 1 0.557
490 54 1 2 0 5 1 1 1 0.412
491 54 1 2 0 6 0 1 1 0.59
492 54 1 2 0 7 1 1 1 0.444
493 54 1 2 0 8 0 0 0 0.446
494 54 1 2 0 9 0 0 0 0.377
495 54 1 2 0 10 1 0 0 0.38
496 54 1 2 0 11 0 0 0 0.364
497 54 1 2 0 12 1 0 0 0.27
498 54 1 2 0 13 1 1 1 0.511
499 54 1 2 0 14 0 0 0 0.574
500 54 1 2 0 15 1 0 0 0.396
501 54 1 2 0 16 0 0 0 0.334
502 54 1 2 0 17 0 1 0 0.383
503 54 1 2 0 18 1 0 0 0.595
504 54 1 2 0 19 0 1 1 0.523
505 60 0 0 0 0 1 0 1 1.206
506 60 0 0 0 1 1 1 1 0.762
507 60 0 0 0 2 1 1 1 0.749
508 60 0 0 0 3 0 1 0 0.799
509 60 0 0 0 4 1 1 1 1.375
510 60 0 0 0 5 0 1 0 0.893
511 60 0 0 0 6 1 1 1 0.829
512 60 0 0 0 7 0 0 0 0.801
513 60 0 0 0 8 1 1 1 0.767
514 60 0 0 0 9 1 0 0 0.944
515 60 0 0 0 10 0 1 0 1.163
516 60 0 0 0 11 0 0 0 0.686
517 60 0 0 0 12 0 1 0 0.768
518 60 0 0 0 13 1 0 1 0.751
519 60 0 0 0 14 0 0 0 0.848
520 60 0 0 0 15 0 0 0 0.766
521 60 0 0 0 16 0 0 0 0.655
522 60 0 0 0 17 0 1 0 0.977
523 60 0 0 0 18 1 0 1 0.779
524 60 0 0 0 19 1 0 1 0.863
525 60 1 0 0 0 1 0 1 1.862
526 60 1 0 0 1 1 0 0 1.372
527 60 1 0 0 2 0 0 0 0.668
528 60 1 0 0 3 0 0 0 0.622
529 60 1 0 0 4 1 0 0 1.498
530 60 1 0 0 5 0 1 1 1.103
531 60 1 0 0 6 0 0 0 1.084
532 60 1 0 0 7 1 1 1 0.688
533 60 1 0 0 8 0 1 1 0.913
534 60 1 0 0 9 0 1 1 0.606
535 60 1 0 0 10 1 0 0 1.163
536 60 1 0 0 11 0 1 1 0.78
537 60 1 0 0 12 1 1 1 1.325
538 60 1 0 0 13 0 0 0 0.636
539 60 1 0 0 14 1 1 1 0.72
540 60 1 0 0 15 1 1 1 0.816
541 60 1 0 0 16 0 1 1 0.75
542 60 1 0 0 17 0 0 0 0.767
543 60 1 0 0 18 1 1 1 0.832
544 60 1 0 0 19 1 0 0 0.814
545 60 0 1 0 0 1 1 1 1.447
546 61 0 2 0 0 1 0 1 2.827
547 60 0 1 0 1 0 1 0 1.375
548 61 0 2 0 1 0 0 0 1.753
549 61 0 2 0 2 1 0 1 1.019
550 60 0 1 0 2 0 0 0 2.123
551 61 0 2 0 3 1 0 1 1.098
552 60 0 1 0 3 1 0 1 0.974
553 61 0 2 0 4 1 1 1 1.421
554 60 0 1 0 4 1 0 1 0.829
555 60 0 1 0 5 0 0 0 0.653
556 61 0 2 0 5 1 0 1 1.163
557 60 0 1 0 6 0 0 0 0.848
558 61 0 2 0 6 1 1 1 1.758
559 60 0 1 0 7 0 1 0 0.863
560 60 0 1 0 8 0 1 0 0.829
561 61 0 2 0 7 0 1 0 1.341
562 60 0 1 0 9 0 0 0 0.937
563 61 0 2 0 8 1 0 1 1.84
564 60 0 1 0 10 1 1 1 0.683
565 61 0 2 0 9 1 1 1 0.972
566 60 0 1 0 11 1 0 1 0.799
567 61 0 2 0 10 0 0 0 0.842
568 60 0 1 0 12 1 0 1 0.735
569 60 0 1 0 13 1 0 1 0.719
570 61 0 2 0 11 0 1 0 1.051
571 60 0 1 0 14 1 1 1 0.704
572 61 0 2 0 12 0 1 0 0.831
573 60 0 1 0 15 0 0 0 1.083
574 61 0 2 0 13 1 1 1 0.749
575 60 0 1 0 16 0 1 0 0.799
576 61 0 2 0 14 1 1 0 0.749
577 60 0 1 0 17 0 1 0 0.816
578 61 0 2 0 15 0 0 0 0.765
579 60 0 1 0 18 1 1 1 0.943
580 61 0 2 0 16 0 1 0 0.973
581 60 0 1 0 19 1 1 1 0.781
582 61 0 2 0 17 0 0 0 0.842
583 61 0 2 0 18 0 1 0 1.723
584 61 0 2 0 19 0 0 0 1.005
585 61 1 1 0 0 0 1 1 1.867
586 61 1 1 0 1 1 0 0 1.082
587 61 1 1 0 2 1 1 1 0.83
588 60 0 2 0 0 0 0 1 4.501
589 61 1 1 0 3 1 1 1 0.844
590 60 0 2 0 1 1 1 1 1.256
591 61 1 1 0 4 1 0 0 0.796
592 60 0 2 0 2 0 0 0 0.86
593 61 1 1 0 5 0 0 0 0.941
594 60 0 2 0 3 1 0 1 1.357
595 61 1 1 0 6 1 0 0 0.745
596 61 1 1 0 7 0 1 1 0.606
597 60 0 2 0 4 0 1 0 1.741
598 61 1 1 0 8 0 0 0 0.49
599 61 1 1 0 9 0 0 0 0.477
600 60 0 2 0 5 1 1 1 1.26
601 61 1 1 0 10 0 0 0 0.446
602 61 1 1 0 11 0 1 1 0.494
603 61 1 1 0 12 0 1 1 0.413
604 61 1 1 0 13 1 0 0 0.753
605 60 0 2 0 6 0 1 1 2.525
606 61 1 1 0 14 0 1 1 0.566
607 61 1 1 0 15 0 0 0 0.628
608 60 0 2 0 7 0 0 0 1.155
609 61 1 1 0 16 1 1 1 0.51
610 61 1 1 0 17 1 0 0 0.43
611 60 0 2 0 8 1 0 1 1
612 61 1 1 0 18 1 1 1 0.525
613 61 1 1 0 19 1 1 1 0.428
614 60 0 2 0 9 1 0 1 2.863
615 60 0 2 0 10 0 0 0 0.851
616 60 0 2 0 11 0 0 0 1.104
617 60 0 2 0 12 1 0 1 1.17
618 60 0 2 0 13 0 1 0 1.242
619 60 0 2 0 14 0 1 0 2.331
620 60 0 2 0 15 1 0 1 0.796
621 61 1 2 0 0 0 0 0 1.911
622 60 0 2 0 16 0 1 0 2.141
623 61 1 2 0 1 1 1 1 0.83
624 60 0 2 0 17 1 1 1 1.423
625 61 1 2 0 2 1 1 1 0.605
626 61 1 2 0 3 0 1 1 0.537
627 60 0 2 0 18 1 1 1 0.762
628 61 1 2 0 4 1 1 1 0.818
629 60 0 2 0 19 1 1 1 1.054
630 61 1 2 0 5 1 0 0 0.72
631 61 1 2 0 6 1 1 1 0.618
632 61 1 2 0 7 0 1 1 0.958
633 61 1 2 0 8 0 1 1 0.813
634 61 1 2 0 9 1 0 0 0.462
635 61 1 2 0 10 0 0 0 0.943
636 61 1 2 0 11 1 0 0 0.958
637 61 1 2 0 12 0 0 0 0.846
638 61 1 2 0 13 1 0 0 1.42
639 61 1 2 0 14 0 1 1 0.57
640 61 1 2 0 15 0 0 0 0.799
641 61 1 2 0 16 0 0 0 1.152
642 61 1 2 0 17 1 0 1 0.978
643 61 1 2 0 18 1 1 1 0.761
644 61 1 2 0 19 0 1 1 0.846
645 60 1 2 0 0 1 0 0 1.831
646 60 1 2 0 1 0 0 0 1.12
647 60 1 2 0 2 0 1 1 1.146
648 60 1 2 0 3 0 1 1 0.895
649 60 1 2 0 4 1 1 1 1.548
650 60 1 2 0 5 1 0 0 0.783
651 60 1 2 0 6 0 0 0 1.219
652 60 1 2 0 7 0 1 1 0.745
653 60 1 2 0 8 1 1 1 0.83
654 60 1 2 0 9 1 0 0 0.715
655 60 1 2 0 10 0 1 1 0.815
656 60 1 2 0 11 0 0 0 0.722
657 60 1 2 0 12 1 0 0 1.002
658 61 0 1 0 0 1 0 1 2.411
659 60 1 2 0 13 0 0 0 0.64
660 60 1 2 0 14 0 1 1 0.633
661 61 0 1 0 1 1 1 1 0.831
662 60 1 2 0 15 1 0 0 0.539
663 61 0 1 0 2 0 1 0 0.816
664 60 1 2 0 16 1 1 1 0.972
665 61 0 1 0 3 0 0 0 0.75
666 60 1 2 0 17 0 0 0 0.563
667 61 0 1 0 4 0 0 0 0.638
668 60 1 2 0 18 1 1 1 0.684
669 61 0 1 0 5 0 1 0 0.705
670 61 0 1 0 6 1 0 1 0.666
671 60 1 2 0 19 1 1 0 0.702
672 61 0 1 0 7 0 1 0 0.711
673 61 0 1 0 8 1 0 1 0.797
674 61 0 1 0 9 1 1 1 0.706
675 61 0 1 0 10 0 0 0 1.085
676 61 0 1 0 11 0 0 0 0.625
677 61 0 1 0 12 1 1 1 0.619
678 61 0 1 0 13 1 0 1 0.799
679 61 0 1 0 14 0 1 0 0.986
680 61 0 1 0 15 1 1 1 0.747
681 61 0 1 0 16 1 1 1 0.67
682 61 0 1 0 17 1 0 1 0.648
683 61 0 1 0 18 0 1 0 0.638
684 61 0 1 0 19 0 0 0 0.577
685 60 1 1 0 0 1 1 1 1.095
686 60 1 1 0 1 0 0 0 0.638
687 60 1 1 0 2 1 1 1 0.89
688 60 1 1 0 3 0 0 0 1.212
689 60 1 1 0 4 0 1 1 0.622
690 60 1 1 0 5 1 0 0 0.665
691 60 1 1 0 6 0 0 0 0.701
692 60 1 1 0 7 0 1 1 0.594
693 60 1 1 0 8 0 1 1 0.541
694 60 1 1 0 9 0 1 1 0.748
695 60 1 1 0 10 1 1 1 0.863
696 60 1 1 0 11 1 0 0 0.654
697 60 1 1 0 12 0 0 0 0.562
698 60 1 1 0 13 1 1 1 0.653
699 60 1 1 0 14 1 0 0 0.617
700 61 1 0 0 0 0 1 1 6.313
701 60 1 1 0 15 0 1 1 0.736
702 60 1 1 0 16 1 0 0 0.631
703 61 1 0 0 1 0 0 1 1.008
704 60 1 1 0 17 1 0 0 0.782
705 60 1 1 0 18 1 1 1 0.622
706 60 1 1 0 19 0 0 0 0.667
707 61 1 0 0 2 1 1 1 2.265
708 61 1 0 0 3 1 0 1 0.842
709 61 1 0 0 4 1 0 0 1.513
710 61 1 0 0 5 1 0 0 1.134
711 61 1 0 0 6 1 1 1 0.858
712 61 1 0 0 7 1 1 1 0.86
713 61 1 0 0 8 1 0 0 0.62
714 61 1 0 0 9 1 1 1 0.671
715 61 1 0 0 10 0 1 1 1.219
716 61 1 0 0 11 0 0 0 0.698
717 61 1 0 0 12 0 1 1 0.735
718 61 1 0 0 13 0 1 1 0.607
719 61 1 0 0 14 1 1 1 0.554
720 61 1 0 0 15 0 0 0 0.672
721 61 1 0 0 16 1 0 0 0.555
722 61 1 0 0 17 0 0 0 0.593
723 61 1 0 0 18 0 0 0 0.572
724 61 1 0 0 19 0 1 1 0.587
725 61 0 0 0 0 1 0 1 2.906
726 61 0 0 0 1 0 1 0 0.735
727 61 0 0 0 2 0 0 0 0.559
728 61 0 0 0 3 0 0 0 0.683
729 61 0 0 0 4 1 1 1 0.607
730 61 0 0 0 5 0 1 0 0.756
731 61 0 0 0 6 1 0 0 1.305
732 61 0 0 0 7 1 1 1 0.759
733 61 0 0 0 8 0 0 0 0.765
734 61 0 0 0 9 0 1 0 0.923
735 61 0 0 0 10 0 0 0 0.701
736 61 0 0 0 11 0 1 0 0.688
737 61 0 0 0 12 1 0 1 0.826
738 61 0 0 0 13 1 1 1 0.604
739 61 0 0 0 14 1 0 1 0.832
740 61 0 0 0 15 0 0 0 0.558
741 61 0 0 0 16 0 1 0 0.797
742 61 0 0 0 17 1 0 1 0.926
743 61 0 0 0 18 1 1 0 0.764
744 61 0 0 0 19 1 1 1 0.699
745 62 0 1 0 0 1 1 1 1.044
746 62 0 1 0 1 1 0 1 0.911
747 62 0 1 0 2 0 0 0 0.668
748 62 0 1 0 3 1 0 1 0.417
749 62 0 1 0 4 0 0 0 0.35
750 62 0 1 0 5 0 1 1 0.336
751 62 0 1 0 6 1 1 1 0.614
752 62 0 1 0 7 0 1 1 0.543
753 62 0 1 0 8 1 1 1 0.601
754 62 0 1 0 9 0 1 0 0.743
755 62 0 1 0 10 1 0 1 0.732
756 62 0 1 0 11 0 0 0 0.511
757 62 0 1 0 12 1 1 1 0.509
758 62 0 1 0 13 0 0 0 0.504
759 62 0 1 0 14 1 0 0 0.663
760 62 0 1 0 15 0 1 0 0.749
761 62 0 1 0 16 0 1 0 0.669
762 62 0 1 0 17 1 1 1 0.592
763 62 0 1 0 18 1 0 1 0.926
764 62 0 1 0 19 0 0 0 0.571
765 62 0 0 0 0 1 1 1 0.696
766 62 0 0 0 1 0 0 0 0.491
767 62 0 0 0 2 0 1 1 0.523
768 62 0 0 0 3 0 1 0 0.632
769 62 0 0 0 4 1 1 1 0.557
770 62 0 0 0 5 0 0 0 0.795
771 62 0 0 0 6 0 0 0 0.556
772 62 0 0 0 7 0 1 1 0.539
773 62 0 0 0 8 0 1 0 0.937
774 62 0 0 0 9 1 1 1 0.775
775 62 0 0 0 10 1 0 0 0.492
776 62 0 0 0 11 0 0 0 0.647
777 62 0 0 0 12 1 1 1 0.589
778 62 0 0 0 13 0 1 0 0.602
779 62 0 0 0 14 1 1 1 0.592
780 62 0 0 0 15 1 0 0 0.476
781 62 0 0 0 16 1 0 1 1.256
782 62 0 0 0 17 1 0 1 0.508
783 62 0 0 0 18 1 0 1 0.42
784 62 0 0 0 19 0 0 1 0.447
785 62 1 0 0 0 0 1 0 0.712
786 62 1 0 0 1 0 0 0 0.619
787 62 1 0 0 2 0 0 0 0.572
788 62 1 0 0 3 0 1 1 0.609
789 62 1 0 0 4 0 0 0 0.717
790 62 1 0 0 5 1 0 1 0.815
791 62 1 0 0 6 0 0 0 0.916
792 62 1 0 0 7 0 0 1 1.043
793 62 1 0 0 8 1 1 1 0.73
794 62 1 0 0 9 1 0 0 1.166
795 62 1 0 0 10 1 0 0 0.847
796 62 1 0 0 11 1 0 0 0.877
797 62 1 0 0 12 1 1 1 0.606
798 62 1 0 0 13 1 0 0 0.763
799 62 1 0 0 14 1 1 1 0.494
800 62 1 0 0 15 0 1 0 0.445
801 62 1 0 0 16 0 1 1 0.807
802 62 1 0 0 17 1 1 1 0.573
803 62 1 0 0 18 0 1 1 0.86
804 62 1 0 0 19 1 1 1 0.701
805 62 0 2 0 0 1 0 1 0.807
806 62 0 2 0 1 1 0 0 0.712
807 62 0 2 0 2 0 1 0 1.388
808 62 0 2 0 3 1 1 0 0.956
809 62 0 2 0 4 1 0 1 1.657
810 62 0 2 0 5 1 1 0 1.1
811 62 0 2 0 6 1 1 0 1.094
812 62 0 2 0 7 0 0 1 2.123
813 62 0 2 0 8 0 0 0 1.659
814 62 0 2 0 9 0 0 0 0.798
815 62 0 2 0 10 1 1 1 1.02
816 62 0 2 0 11 0 1 0 0.85
817 62 0 2 0 12 0 0 0 1.102
818 62 0 2 0 13 0 1 1 1.399
819 62 0 2 0 14 0 1 0 1.742
820 62 0 2 0 15 0 1 0 0.846
821 62 0 2 0 16 1 0 1 1.087
822 62 0 2 0 17 1 0 1 1.114
823 62 0 2 0 18 1 1 1 1.054
824 62 0 2 0 19 0 0 1 1.499
825 62 1 1 0 0 0 1 1 1.159
826 62 1 1 0 1 1 1 1 0.732
827 62 1 1 0 2 0 0 0 0.541
828 62 1 1 0 3 1 0 0 0.602
829 62 1 1 0 4 0 1 1 0.53
830 62 1 1 0 5 0 1 1 0.508
831 62 1 1 0 6 1 0 0 0.652
832 62 1 1 0 7 1 0 0 0.544
833 62 1 1 0 8 1 1 1 0.555
834 62 1 1 0 9 1 0 0 0.715
835 62 1 1 0 10 0 0 0 0.525
836 62 1 1 0 11 0 0 0 0.554
837 62 1 1 0 12 0 1 1 0.514
838 62 1 1 0 13 1 1 0 0.557
839 62 1 1 0 14 1 0 0 0.569
840 62 1 1 0 15 0 1 1 0.496
841 62 1 1 0 16 1 1 1 0.654
842 62 1 1 0 17 0 0 0 0.632
843 62 1 1 0 18 0 0 0 0.573
844 62 1 1 0 19 1 1 1 0.683
845 62 1 2 0 0 0 0 0 1.398
846 62 1 2 0 1 0 0 0 0.639
847 62 1 2 0 2 0 1 1 0.523
848 62 1 2 0 3 0 0 0 0.716
849 62 1 2 0 4 1 0 1 0.527
850 62 1 2 0 5 0 1 1 0.92
851 62 1 2 0 6 0 0 0 0.521
852 62 1 2 0 7 1 0 1 0.594
853 62 1 2 0 8 0 1 1 0.697
854 62 1 2 0 9 1 1 1 1.646
855 62 1 2 0 10 1 1 1 0.814
856 62 1 2 0 11 0 0 0 0.637
857 62 1 2 0 12 1 0 0 0.688
858 62 1 2 0 13 1 1 1 0.602
859 62 1 2 0 14 1 1 1 0.529
860 62 1 2 0 15 1 0 0 0.556
861 62 1 2 0 16 1 1 1 0.603
862 62 1 2 0 17 0 1 1 0.496
863 62 1 2 0 18 1 0 0 0.606
864 62 1 2 0 19 0 1 1 0.546
865 77 1 0 0 0 1 1 1 1.038
866 77 1 0 0 1 1 1 1 0.629
867 77 1 0 0 2 0 0 0 0.451
868 77 1 0 0 3 0 0 0 0.473
869 77 1 0 0 4 1 0 0 0.659
870 77 1 0 0 5 1 0 0 0.598
871 77 1 0 0 6 0 1 1 0.425
872 77 1 0 0 7 0 1 1 0.807
873 77 1 0 0 8 1 0 0 0.599
874 77 1 0 0 9 1 0 0 0.505
875 77 1 0 0 10 1 1 1 0.364
876 77 1 0 0 11 0 1 1 0.684
877 77 1 0 0 12 0 0 0 0.554
878 77 1 0 0 13 0 1 1 0.491
879 77 1 0 0 14 0 1 1 0.484
880 77 1 0 0 15 0 0 0 0.441
881 77 1 0 0 16 0 1 1 0.692
882 77 1 0 0 17 1 1 1 0.55
883 77 1 0 0 18 1 1 1 0.441
884 77 1 0 0 19 0 1 1 0.647
885 77 1 0 0 20 1 1 1 0.617
886 77 1 0 0 21 0 0 0 0.506
887 77 1 0 0 22 0 0 0 0.597
888 77 1 0 0 23 1 1 0 0.441
889 77 1 0 0 24 1 1 1 0.321
890 77 1 0 0 25 0 0 0 0.331
891 77 1 0 0 26 0 1 1 0.584
892 77 1 0 0 27 0 0 0 0.456
893 77 1 0 0 28 1 0 0 0.628
894 77 1 0 0 29 1 0 0 0.551
895 77 1 0 0 30 0 0 0 0.408
896 77 1 0 0 31 0 0 0 0.597
897 77 1 0 0 32 0 1 1 0.694
898 77 1 0 0 33 0 0 0 0.583
899 77 1 0 0 34 1 0 0 0.521
900 77 1 0 0 35 1 1 1 0.564
901 77 1 0 0 36 1 0 0 0.359
902 77 1 0 0 37 1 1 1 0.421
903 77 1 0 0 38 0 1 1 0.335
904 77 1 0 0 39 1 0 0 0.385
905 77 1 0 0 40 0 0 0 0.361
906 77 1 0 0 41 0 1 1 0.375
907 77 1 0 0 42 1 1 1 0.455
908 77 1 0 0 43 0 0 0 0.299
909 77 1 0 0 44 0 0 0 0.311
910 77 1 0 0 45 0 0 0 0.326
911 77 1 0 0 46 1 1 1 0.392
912 77 1 0 0 47 0 1 1 0.288
913 77 1 0 0 48 1 1 0 0.251
914 77 1 0 0 49 0 0 0 0.464
915 77 1 0 1 50 1 0 0 0.707
916 77 1 0 1 51 0 1 1 0.294
917 77 1 0 1 52 1 0 0 0.437
918 77 1 0 1 53 0 1 1 0.297
919 77 1 0 1 54 1 0 1 0.28
920 77 1 0 1 55 0 1 1 0.452
921 77 1 0 1 56 1 1 1 0.298
922 77 1 0 1 57 1 0 0 0.311
923 77 1 0 1 58 1 1 1 0.312
924 77 1 0 1 59 1 0 0 0.407
925 77 1 0 1 60 1 0 0 0.485
926 77 1 0 1 61 0 0 0 0.281
927 77 1 0 1 62 1 0 0 0.313
928 77 1 0 1 63 1 0 0 0.458
929 77 1 0 1 64 1 0 0 0.44
930 77 1 0 1 65 1 1 1 0.27
931 77 1 0 1 66 1 1 1 0.266
932 77 1 0 1 67 0 0 0 0.375
933 77 1 0 1 68 1 0 0 0.406
934 77 1 0 1 69 0 0 0 0.3
935 77 1 0 1 70 1 0 0 0.265
936 77 1 0 1 71 0 1 1 0.294
937 77 1 0 1 72 0 0 0 0.423
938 77 1 0 1 73 1 1 1 0.268
939 77 1 0 1 74 1 1 1 0.33
940 77 1 0 1 75 1 1 1 0.407
941 77 1 0 1 76 1 0 1 0.199
942 77 1 0 1 77 1 0 0 0.437
943 77 1 0 1 78 0 0 0 0.25
944 77 1 0 1 79 0 0 0 0.264
945 77 1 0 1 80 1 1 1 0.441
946 77 1 0 1 81 1 1 1 0.487
947 77 1 0 1 82 1 1 1 0.298
948 77 1 0 1 83 0 1 1 0.312
949 77 1 0 1 84 0 1 1 0.395
950 77 1 0 1 85 1 0 0 0.377
951 77 1 0 1 86 1 1 1 0.325
952 77 1 0 1 87 0 0 0 0.439
953 77 1 0 1 88 0 1 1 0.268
954 77 1 0 1 89 0 1 1 0.282
955 77 1 0 1 90 0 0 0 0.328
956 77 1 0 1 91 0 1 1 0.327
957 77 1 0 1 92 0 0 0 0.391
958 77 1 0 1 93 0 1 1 0.404
959 77 1 0 1 94 0 1 1 0.284
960 77 1 0 1 95 0 1 1 0.232
961 77 1 0 1 96 1 0 0 0.344
962 77 1 0 1 97 1 1 1 0.326
963 77 1 0 1 98 0 1 1 0.409
964 77 1 0 1 99 1 0 0 0.389
965 77 0 1 0 0 0 1 0 0.879
966 77 0 1 0 1 0 1 0 0.327
967 77 0 1 0 2 0 1 0 0.376
968 77 0 1 0 3 1 1 1 0.436
969 77 0 1 0 4 0 0 0 0.36
970 77 0 1 0 5 1 0 1 0.406
971 77 0 1 0 6 1 0 0 0.285
972 77 0 1 0 7 0 0 0 0.359
973 77 0 1 0 8 0 0 0 0.406
974 77 0 1 0 9 1 1 1 0.284
975 77 0 1 0 10 0 0 0 0.297
976 77 0 1 0 11 1 0 1 0.456
977 77 0 1 0 12 0 0 0 0.516
978 77 0 1 0 13 0 1 0 0.503
979 77 0 1 0 14 1 1 1 0.283
980 77 0 1 0 15 1 0 1 0.455
981 77 0 1 0 16 1 0 1 0.427
982 77 0 1 0 17 1 1 1 0.406
983 77 0 1 0 18 1 1 1 0.661
984 77 0 1 0 19 0 0 0 0.391
985 77 0 1 0 20 1 1 1 0.694
986 77 0 1 0 21 0 1 0 0.486
987 77 0 1 0 22 0 1 0 0.643
988 77 0 1 0 23 1 1 1 0.502
989 77 0 1 0 24 0 1 1 0.393
990 77 0 1 0 25 1 0 1 0.403
991 77 0 1 0 26 0 0 0 0.281
992 77 0 1 0 27 0 0 0 0.391
993 77 0 1 0 28 0 1 0 0.47
994 77 0 1 0 29 0 0 0 0.346
995 77 0 1 0 30 1 1 1 0.406
996 77 0 1 0 31 1 1 1 0.518
997 77 0 1 0 32 0 1 0 0.394
998 77 0 1 0 33 1 1 1 0.534
999 77 0 1 0 34 1 0 0 0.361
1000 77 0 1 0 35 0 0 0 0.643
1001 77 0 1 0 36 1 0 1 0.455
1002 77 0 1 0 37 0 1 0 0.533
1003 77 0 1 0 38 1 1 1 0.407
1004 77 0 1 0 39 1 1 1 0.469
1005 77 0 1 0 40 1 0 0 0.28
1006 77 0 1 0 41 0 0 0 0.356
1007 77 0 1 0 42 0 1 0 0.47
1008 77 0 1 0 43 0 1 0 0.411
1009 77 0 1 0 44 0 0 0 0.325
1010 77 0 1 0 45 0 1 0 0.379
1011 77 0 1 0 46 1 1 1 0.406
1012 77 0 1 0 47 1 0 0 0.439
1013 77 0 1 0 48 1 0 1 0.514
1014 77 0 1 0 49 1 0 1 0.421
1015 77 0 1 1 50 1 1 1 0.534
1016 77 0 1 1 51 1 0 0 0.344
1017 77 0 1 1 52 1 0 1 0.564
1018 77 0 1 1 53 1 1 1 0.262
1019 77 0 1 1 54 1 1 1 0.343
1020 77 0 1 1 55 1 1 1 0.456
1021 77 0 1 1 56 0 0 0 0.438
1022 77 0 1 1 57 0 0 0 0.38
1023 77 0 1 1 58 0 0 0 0.393
1024 77 0 1 1 59 0 0 0 0.489
1025 77 0 1 1 60 0 1 0 0.474
1026 77 0 1 1 61 0 1 0 0.485
1027 77 0 1 1 62 1 0 1 0.408
1028 77 0 1 1 63 1 1 1 0.439
1029 77 0 1 1 64 1 0 1 0.54
1030 77 0 1 1 65 0 0 0 0.615
1031 77 0 1 1 66 0 0 0 0.329
1032 77 0 1 1 67 1 1 1 0.409
1033 77 0 1 1 68 1 0 1 0.567
1034 77 0 1 1 69 0 0 0 0.345
1035 77 0 1 1 70 1 0 1 0.456
1036 77 0 1 1 71 0 1 0 0.38
1037 77 0 1 1 72 1 1 1 0.359
1038 77 0 1 1 73 0 0 0 0.455
1039 77 0 1 1 74 1 0 1 0.204
1040 77 0 1 1 75 0 1 0 0.377
1041 77 0 1 1 76 0 0 0 0.374
1042 77 0 1 1 77 0 1 0 0.518
1043 77 0 1 1 78 1 0 0 0.329
1044 77 0 1 1 79 0 1 1 0.355
1045 77 0 1 1 80 1 0 1 0.515
1046 77 0 1 1 81 1 1 1 0.297
1047 77 0 1 1 82 1 0 1 0.506
1048 77 0 1 1 83 1 1 1 0.469
1049 77 0 1 1 84 0 1 0 0.521
1050 77 0 1 1 85 0 1 0 0.299
1051 77 0 1 1 86 0 1 0 0.408
1052 77 0 1 1 87 0 0 0 0.453
1053 77 0 1 1 88 1 1 1 0.441
1054 77 0 1 1 89 0 0 0 0.517
1055 77 0 1 1 90 0 1 0 0.344
1056 77 0 1 1 91 1 1 1 0.487
1057 77 0 1 1 92 0 0 1 0.363
1058 77 0 1 1 93 1 0 1 0.563
1059 77 0 1 1 94 1 1 1 0.344
1060 77 0 1 1 95 0 0 0 0.375
1061 77 0 1 1 96 0 1 0 0.487
1062 77 0 1 1 97 0 1 0 0.314
1063 77 0 1 1 98 1 0 1 0.376
1064 77 0 1 1 99 1 0 1 0.334
1065 77 0 0 0 0 0 0 0 0.575
1066 77 0 0 0 1 0 0 0 0.343
1067 77 0 0 0 2 0 1 0 0.408
1068 77 0 0 0 3 1 1 1 0.406
1069 77 0 0 0 4 0 0 0 0.551
1070 77 0 0 0 5 0 0 0 0.266
1071 77 0 0 0 6 0 1 0 0.41
1072 77 0 0 0 7 0 1 0 0.28
1073 77 0 0 0 8 0 1 0 0.282
1074 77 0 0 0 9 1 1 0 0.232
1075 77 0 0 0 10 0 0 0 0.334
1076 77 0 0 0 11 0 1 0 0.426
1077 77 0 0 0 12 1 0 1 0.5
1078 77 0 0 0 13 1 0 1 0.41
1079 77 0 0 0 14 0 0 0 0.344
1080 77 0 0 0 15 0 1 1 0.376
1081 77 0 0 0 16 1 0 0 0.323
1082 77 0 0 0 17 1 0 1 0.399
1083 77 0 0 0 18 1 0 1 0.296
1084 77 0 0 0 19 0 0 0 0.403
1085 77 0 0 0 20 1 1 0 0.265
1086 77 0 0 0 21 1 0 0 0.277
1087 77 0 0 0 22 1 1 1 0.483
1088 77 0 0 0 23 0 1 0 0.408
1089 77 0 0 0 24 1 1 1 0.471
1090 77 0 0 0 25 1 0 0 0.405
1091 77 0 0 0 26 0 0 0 0.449
1092 77 0 0 0 27 1 0 1 0.488
1093 77 0 0 0 28 1 1 1 0.484
1094 77 0 0 0 29 1 1 1 0.282
1095 77 0 0 0 30 1 1 1 0.329
1096 77 0 0 0 31 1 1 1 0.427
1097 77 0 0 0 32 1 0 1 0.519
1098 77 0 0 0 33 0 1 0 0.377
1099 77 0 0 0 34 1 1 1 0.488
1100 77 0 0 0 35 0 1 0 0.453
1101 77 0 0 0 36 1 0 1 0.507
1102 77 0 0 0 37 1 1 1 0.438
1103 77 0 0 0 38 0 0 0 0.38
1104 77 0 0 0 39 0 1 0 0.424
1105 77 0 0 0 40 0 0 0 0.487
1106 77 0 0 0 41 1 1 1 0.379
1107 77 0 0 0 42 1 0 1 0.407
1108 77 0 0 0 43 0 0 0 0.469
1109 77 0 0 0 44 1 0 0 0.266
1110 77 0 0 0 45 0 1 0 0.686
1111 77 0 0 0 46 0 0 0 0.363
1112 77 0 0 0 47 0 0 0 0.36
1113 77 0 0 0 48 0 0 0 0.39
1114 77 0 0 0 49 1 0 1 0.488
1115 77 0 0 1 50 1 0 1 0.402
1116 77 0 0 1 51 0 1 0 0.426
1117 77 0 0 1 52 0 1 0 0.44
1118 77 0 0 1 53 0 1 0 0.358
1119 77 0 0 1 54 0 0 0 0.359
1120 77 0 0 1 55 1 1 1 0.369
1121 77 0 0 1 56 0 1 0 0.394
1122 77 0 0 1 57 1 1 1 0.342
1123 77 0 0 1 58 0 1 1 0.318
1124 77 0 0 1 59 1 0 1 0.394
1125 77 0 0 1 60 1 1 1 0.343
1126 77 0 0 1 61 1 0 0 0.472
1127 77 0 0 1 62 1 1 1 0.275
1128 77 0 0 1 63 1 0 1 0.422
1129 77 0 0 1 64 0 1 0 0.42
1130 77 0 0 1 65 0 0 0 0.251
1131 77 0 0 1 66 1 0 0 0.315
1132 77 0 0 1 67 1 1 1 0.325
1133 77 0 0 1 68 1 1 1 0.309
1134 77 0 0 1 69 1 0 1 0.518
1135 77 0 0 1 70 1 1 1 0.248
1136 77 0 0 1 71 0 0 0 0.378
1137 77 0 0 1 72 1 1 1 0.472
1138 77 0 0 1 73 0 0 0 0.405
1139 77 0 0 1 74 1 0 1 0.237
1140 77 0 0 1 75 1 0 0 0.379
1141 77 0 0 1 76 1 1 1 0.292
1142 77 0 0 1 77 0 1 0 0.382
1143 77 0 0 1 78 0 1 0 0.376
1144 77 0 0 1 79 0 0 0 0.376
1145 77 0 0 1 80 0 1 0 0.553
1146 77 0 0 1 81 0 1 0 0.299
1147 77 0 0 1 82 1 1 1 0.376
1148 77 0 0 1 83 1 0 1 0.438
1149 77 0 0 1 84 0 1 0 0.363
1150 77 0 0 1 85 1 1 1 0.393
1151 77 0 0 1 86 0 1 0 0.375
1152 77 0 0 1 87 0 0 0 0.488
1153 77 0 0 1 88 1 1 1 0.347
1154 77 0 0 1 89 0 1 0 0.377
1155 77 0 0 1 90 0 1 0 0.538
1156 77 0 0 1 91 1 0 1 0.534
1157 77 0 0 1 92 1 0 1 0.379
1158 77 0 0 1 93 0 0 0 0.408
1159 77 0 0 1 94 0 0 0 0.488
1160 77 0 0 1 95 0 0 0 0.284
1161 77 0 0 1 96 1 0 1 0.458
1162 77 0 0 1 97 0 0 0 0.407
1163 77 0 0 1 98 1 1 1 0.237
1164 77 0 0 1 99 0 0 0 0.297
1165 77 0 2 0 0 1 0 1 0.87
1166 77 0 2 0 1 1 1 1 0.499
1167 77 0 2 0 2 1 1 1 0.423
1168 77 0 2 0 3 1 1 1 0.535
1169 77 0 2 0 4 1 0 0 0.442
1170 77 0 2 0 5 1 0 1 0.338
1171 77 0 2 0 6 0 1 0 0.479
1172 77 0 2 0 7 0 1 0 0.392
1173 77 0 2 0 8 0 1 0 0.456
1174 77 0 2 0 9 0 0 0 0.545
1175 77 0 2 0 10 1 0 1 0.471
1176 77 0 2 0 11 0 0 0 0.427
1177 77 0 2 0 12 1 0 1 0.454
1178 77 0 2 0 13 1 1 1 0.586
1179 77 0 2 0 14 1 1 1 0.617
1180 77 0 2 0 15 1 0 1 0.505
1181 77 0 2 0 16 0 0 0 0.45
1182 77 0 2 0 17 0 0 0 0.408
1183 77 0 2 0 18 1 1 1 0.512
1184 77 0 2 0 19 1 0 1 0.486
1185 77 0 2 0 20 1 0 1 0.441
1186 77 0 2 0 21 1 1 1 0.484
1187 77 0 2 0 22 0 0 0 0.408
1188 77 0 2 0 23 0 1 0 0.486
1189 77 0 2 0 24 0 0 0 0.313
1190 77 0 2 0 25 0 1 0 0.439
1191 77 0 2 0 26 0 1 0 0.5
1192 77 0 2 0 27 0 1 0 0.423
1193 77 0 2 0 28 0 1 0 0.501
1194 77 0 2 0 29 0 0 0 0.408
1195 77 0 2 0 30 0 1 0 0.486
1196 77 0 2 0 31 1 1 1 0.426
1197 77 0 2 0 32 1 0 1 0.759
1198 77 0 2 0 33 1 0 1 0.503
1199 77 0 2 0 34 0 0 0 0.458
1200 77 0 2 0 35 0 0 0 0.485
1201 77 0 2 0 36 0 0 0 0.425
1202 77 0 2 0 37 0 1 0 0.567
1203 77 0 2 0 38 0 1 0 0.377
1204 77 0 2 0 39 1 1 1 0.566
1205 77 0 2 0 40 1 1 1 0.44
1206 77 0 2 0 41 0 0 0 0.532
1207 77 0 2 0 42 1 1 1 0.62
1208 77 0 2 0 43 1 0 1 0.836
1209 77 0 2 0 44 0 0 0 0.612
1210 77 0 2 0 45 0 1 0 0.615
1211 77 0 2 0 46 1 1 1 0.455
1212 77 0 2 0 47 1 0 1 0.565
1213 77 0 2 0 48 1 0 1 0.358
1214 77 0 2 0 49 0 0 0 0.518
1215 77 0 2 1 50 0 0 0 0.488
1216 77 0 2 1 51 0 0 0 0.611
1217 77 0 2 1 52 1 1 1 0.471
1218 77 0 2 1 53 1 0 1 0.628
1219 77 0 2 1 54 1 0 1 0.441
1220 77 0 2 1 55 1 1 1 0.455
1221 77 0 2 1 56 0 1 1 0.364
1222 77 0 2 1 57 1 0 1 0.454
1223 77 0 2 1 58 0 1 0 0.485
1224 77 0 2 1 59 0 1 0 0.522
1225 77 0 2 1 60 1 1 1 0.518
1226 77 0 2 1 61 1 1 1 0.475
1227 77 0 2 1 62 1 1 1 0.505
1228 77 0 2 1 63 0 0 0 0.422
1229 77 0 2 1 64 0 0 0 0.412
1230 77 0 2 1 65 0 1 0 0.458
1231 77 0 2 1 66 0 1 0 0.286
1232 77 0 2 1 67 0 1 0 0.313
1233 77 0 2 1 68 0 1 0 0.472
1234 77 0 2 1 69 0 1 0 0.347
1235 77 0 2 1 70 0 1 0 0.455
1236 77 0 2 1 71 1 1 0 0.348
1237 77 0 2 1 72 0 1 0 0.534
1238 77 0 2 1 73 1 0 1 0.441
1239 77 0 2 1 74 0 0 0 0.569
1240 77 0 2 1 75 1 1 0 0.424
1241 77 0 2 1 76 1 1 1 0.419
1242 77 0 2 1 77 1 0 0 0.361
1243 77 0 2 1 78 1 0 0 0.723
1244 77 0 2 1 79 1 1 1 0.562
1245 77 0 2 1 80 1 1 1 0.472
1246 77 0 2 1 81 1 0 0 0.597
1247 77 0 2 1 82 0 0 0 0.582
1248 77 0 2 1 83 1 1 1 0.472
1249 77 0 2 1 84 1 0 0 0.484
1250 77 0 2 1 85 1 0 0 0.384
1251 77 0 2 1 86 0 1 0 0.615
1252 77 0 2 1 87 1 0 1 0.488
1253 77 0 2 1 88 0 1 1 0.411
1254 77 0 2 1 89 0 0 0 0.469
1255 77 0 2 1 90 1 0 1 0.49
1256 77 0 2 1 91 0 0 0 0.535
1257 77 0 2 1 92 1 1 1 0.314
1258 77 0 2 1 93 1 1 1 0.408
1259 77 0 2 1 94 0 0 0 0.568
1260 77 0 2 1 95 0 0 0 0.345
1261 77 0 2 1 96 0 1 1 0.421
1262 77 0 2 1 97 1 0 0 0.288
1263 77 0 2 1 98 0 0 0 0.465
1264 77 0 2 1 99 0 0 0 0.33
1265 77 1 2 0 0 1 1 1 0.642
1266 77 1 2 0 1 1 1 1 0.311
1267 77 1 2 0 2 1 1 1 0.33
1268 77 1 2 0 3 0 0 0 0.488
1269 77 1 2 0 4 1 1 1 0.47
1270 77 1 2 0 5 0 0 0 0.362
1271 77 1 2 0 6 1 1 1 0.324
1272 77 1 2 0 7 0 0 0 0.423
1273 77 1 2 0 8 0 0 0 0.796
1274 77 1 2 0 9 0 1 1 0.328
1275 77 1 2 0 10 1 1 1 0.423
1276 77 1 2 0 11 1 0 0 0.355
1277 77 1 2 0 12 0 1 1 0.317
1278 77 1 2 0 13 0 0 0 0.392
1279 77 1 2 0 14 0 1 1 0.456
1280 77 1 2 0 15 0 1 1 0.455
1281 77 1 2 0 16 0 1 1 0.405
1282 77 1 2 0 17 1 0 0 0.3
1283 77 1 2 0 18 0 0 1 0.408
1284 77 1 2 0 19 0 0 0 0.291
1285 77 1 2 0 20 0 1 1 0.358
1286 77 1 2 0 21 1 0 0 0.358
1287 77 1 2 0 22 1 0 1 0.323
1288 77 1 2 0 23 0 1 1 0.336
1289 77 1 2 0 24 1 1 1 0.315
1290 77 1 2 0 25 0 1 1 0.297
1291 77 1 2 0 26 1 1 1 0.345
1292 77 1 2 0 27 0 0 0 0.294
1293 77 1 2 0 28 0 0 0 0.295
1294 77 1 2 0 29 0 0 0 0.279
1295 77 1 2 0 30 0 0 0 0.426
1296 77 1 2 0 31 1 0 0 0.36
1297 77 1 2 0 32 1 1 1 0.344
1298 77 1 2 0 33 1 0 0 0.295
1299 77 1 2 0 34 0 0 0 0.313
1300 77 1 2 0 35 1 1 1 0.312
1301 77 1 2 0 36 1 0 0 0.328
1302 77 1 2 0 37 1 1 1 0.343
1303 77 1 2 0 38 0 1 1 0.423
1304 77 1 2 0 39 0 0 0 0.359
1305 77 1 2 0 40 1 0 0 0.376
1306 77 1 2 0 41 0 0 0 0.342
1307 77 1 2 0 42 1 1 1 0.413
1308 77 1 2 0 43 1 0 0 0.294
1309 77 1 2 0 44 1 0 0 0.277
1310 77 1 2 0 45 1 0 0 0.375
1311 77 1 2 0 46 1 0 0 0.36
1312 77 1 2 0 47 0 1 1 0.311
1313 77 1 2 0 48 0 1 1 0.327
1314 77 1 2 0 49 1 1 1 0.36
1315 77 1 2 1 50 0 0 0 0.356
1316 77 1 2 1 51 1 1 1 0.284
1317 77 1 2 1 52 1 0 0 0.297
1318 77 1 2 1 53 0 0 0 0.281
1319 77 1 2 1 54 1 1 1 0.36
1320 77 1 2 1 55 1 1 1 0.41
1321 77 1 2 1 56 0 1 1 0.327
1322 77 1 2 1 57 0 0 0 0.424
1323 77 1 2 1 58 1 0 0 0.389
1324 77 1 2 1 59 1 0 1 0.283
1325 77 1 2 1 60 0 1 1 0.309
1326 77 1 2 1 61 1 1 1 0.374
1327 77 1 2 1 62 1 1 1 0.301
1328 77 1 2 1 63 0 0 0 0.33
1329 77 1 2 1 64 0 0 0 0.328
1330 77 1 2 1 65 0 1 1 0.41
1331 77 1 2 1 66 1 0 0 0.311
1332 77 1 2 1 67 1 0 0 0.393
1333 77 1 2 1 68 1 0 0 0.391
1334 77 1 2 1 69 0 0 0 0.375
1335 77 1 2 1 70 1 0 0 0.375
1336 77 1 2 1 71 1 0 0 0.425
1337 77 1 2 1 72 0 0 0 0.423
1338 77 1 2 1 73 0 0 1 0.238
1339 77 1 2 1 74 0 1 1 0.292
1340 77 1 2 1 75 1 0 0 0.36
1341 77 1 2 1 76 1 1 1 0.328
1342 77 1 2 1 77 0 0 0 0.361
1343 77 1 2 1 78 1 1 1 0.311
1344 77 1 2 1 79 1 1 1 0.407
1345 77 1 2 1 80 1 1 1 0.439
1346 77 1 2 1 81 0 1 1 0.188
1347 77 1 2 1 82 0 1 1 0.234
1348 77 1 2 1 83 1 0 1 0.217
1349 77 1 2 1 84 0 1 1 0.431
1350 77 1 2 1 85 0 1 1 0.301
1351 77 1 2 1 86 1 1 1 0.332
1352 77 1 2 1 87 1 0 0 0.313
1353 77 1 2 1 88 0 1 1 0.329
1354 77 1 2 1 89 1 0 0 0.36
1355 77 1 2 1 90 0 1 1 0.424
1356 77 1 2 1 91 0 0 0 0.327
1357 77 1 2 1 92 0 1 1 0.313
1358 77 1 2 1 93 1 1 0 0.312
1359 77 1 2 1 94 1 1 1 0.322
1360 77 1 2 1 95 0 1 1 0.34
1361 77 1 2 1 96 1 0 0 0.355
1362 77 1 2 1 97 0 1 1 0.315
1363 77 1 2 1 98 0 1 1 0.424
1364 77 1 2 1 99 0 0 0 0.341
1365 77 1 1 0 0 0 1 1 0.369
1366 77 1 1 0 1 1 0 1 0.217
1367 77 1 1 0 2 0 0 0 0.374
1368 77 1 1 0 3 1 1 1 0.325
1369 77 1 1 0 4 0 0 0 0.328
1370 77 1 1 0 5 1 0 0 0.312
1371 77 1 1 0 6 1 1 1 0.329
1372 77 1 1 0 7 0 1 1 0.312
1373 77 1 1 0 8 0 1 1 0.264
1374 77 1 1 0 9 0 1 1 0.263
1375 77 1 1 0 10 1 0 0 0.345
1376 77 1 1 0 11 1 0 0 0.313
1377 77 1 1 0 12 0 0 0 0.329
1378 77 1 1 0 13 0 1 1 0.313
1379 77 1 1 0 14 1 1 1 0.297
1380 77 1 1 0 15 1 0 0 0.36
1381 77 1 1 0 16 0 0 0 0.407
1382 77 1 1 0 17 1 1 0 0.269
1383 77 1 1 0 18 1 0 0 0.343
1384 77 1 1 0 19 1 1 1 0.31
1385 77 1 1 0 20 0 1 1 0.359
1386 77 1 1 0 21 1 1 1 0.359
1387 77 1 1 0 22 1 0 0 0.36
1388 77 1 1 0 23 0 0 0 0.375
1389 77 1 1 0 24 0 0 0 0.391
1390 77 1 1 0 25 0 1 1 0.376
1391 77 1 1 0 26 1 1 1 0.441
1392 77 1 1 0 27 0 0 0 0.376
1393 77 1 1 0 28 1 1 0 0.472
1394 77 1 1 0 29 0 1 1 0.32
1395 77 1 1 0 30 1 1 1 0.269
1396 77 1 1 0 31 1 0 0 0.282
1397 77 1 1 0 32 1 1 1 0.427
1398 77 1 1 0 33 1 1 1 0.392
1399 77 1 1 0 34 1 1 1 0.317
1400 77 1 1 0 35 0 0 0 0.279
1401 77 1 1 0 36 1 1 1 0.407
1402 77 1 1 0 37 1 0 0 0.597
1403 77 1 1 0 38 0 1 1 0.327
1404 77 1 1 0 39 0 1 1 0.355
1405 77 1 1 0 40 1 0 0 0.373
1406 77 1 1 0 41 0 1 1 0.348
1407 77 1 1 0 42 1 1 1 0.265
1408 77 1 1 0 43 1 1 1 0.247
1409 77 1 1 0 44 0 1 1 0.281
1410 77 1 1 0 45 0 0 0 0.362
1411 77 1 1 0 46 1 0 0 0.276
1412 77 1 1 0 47 0 0 1 0.376
1413 77 1 1 0 48 1 0 0 0.292
1414 77 1 1 0 49 0 0 0 0.376
1415 77 1 1 1 50 0 1 1 0.39
1416 77 1 1 1 51 0 0 0 0.237
1417 77 1 1 1 52 1 0 0 0.298
1418 77 1 1 1 53 1 1 1 0.295
1419 77 1 1 1 54 0 0 0 0.342
1420 77 1 1 1 55 0 0 0 0.326
1421 77 1 1 1 56 1 0 0 0.342
1422 77 1 1 1 57 1 1 1 0.407
1423 77 1 1 1 58 1 0 1 0.301
1424 77 1 1 1 59 1 0 0 0.688
1425 77 1 1 1 60 0 0 0 0.374
1426 77 1 1 1 61 0 1 1 0.237
1427 77 1 1 1 62 0 0 0 0.55
1428 77 1 1 1 63 0 0 0 0.327
1429 77 1 1 1 64 1 1 1 0.373
1430 77 1 1 1 65 1 1 1 0.406
1431 77 1 1 1 66 0 0 0 0.381
1432 77 1 1 1 67 1 0 0 0.313
1433 77 1 1 1 68 0 1 1 0.377
1434 77 1 1 1 69 1 1 1 0.408
1435 77 1 1 1 70 0 1 1 0.473
1436 77 1 1 1 71 1 1 1 0.454
1437 77 1 1 1 72 0 0 0 0.267
1438 77 1 1 1 73 1 0 0 0.407
1439 77 1 1 1 74 0 0 0 0.453
1440 77 1 1 1 75 0 1 1 0.379
1441 77 1 1 1 76 1 1 1 0.457
1442 77 1 1 1 77 1 1 1 0.534
1443 77 1 1 1 78 0 1 0 0.33
1444 77 1 1 1 79 0 1 1 0.47
1445 77 1 1 1 80 1 1 1 0.516
1446 77 1 1 1 81 1 1 1 0.312
1447 77 1 1 1 82 0 1 1 0.519
1448 77 1 1 1 83 0 1 1 0.329
1449 77 1 1 1 84 1 0 0 0.422
1450 77 1 1 1 85 1 0 0 0.346
1451 77 1 1 1 86 0 0 0 0.359
1452 77 1 1 1 87 0 1 1 0.454
1453 77 1 1 1 88 0 1 1 0.532
1454 77 1 1 1 89 0 0 0 0.344
1455 77 1 1 1 90 1 0 0 0.405
1456 77 1 1 1 91 0 0 0 0.299
1457 77 1 1 1 92 0 0 0 0.295
1458 77 1 1 1 93 0 1 1 0.393
1459 77 1 1 1 94 1 0 0 0.423
1460 77 1 1 1 95 1 0 0 0.252
1461 77 1 1 1 96 0 1 1 0.396
1462 77 1 1 1 97 1 0 1 0.728
1463 77 1 1 1 98 1 0 0 0.532
1464 77 1 1 1 99 0 0 0 0.313
