datID sessionID block trial background target difficulty forePeriod resp rt
1 46 0 0 0 0 0 31 0 1.939
2 46 0 1 2 0 1 34 0 1.027
3 46 0 2 2 1 0 32 1 0.399
4 46 0 3 0 1 0 38 1 0.47
5 46 0 4 1 0 1 37 0 0.518
6 46 0 5 1 0 1 35 0 0.479
7 46 0 6 2 0 0 32 1 0.422
8 46 0 7 0 0 2 33 0 0.419
9 46 0 8 0 0 2 31 0 0.365
10 46 0 9 2 0 0 31 0 0.366
11 46 0 10 1 0 2 32 0 0.544
12 46 0 11 1 0 0 31 0 0.589
13 46 0 12 0 0 1 37 1 0.841
14 46 0 13 1 1 0 33 0 0.469
15 46 0 14 2 0 1 33 1 0.397
17 47 0 0 1 1 2 32 1 0.715
18 47 0 1 2 1 0 33 1 0.632
19 47 0 2 0 1 1 33 1 0.476
20 47 0 3 1 0 0 32 0 0.37
21 47 0 4 1 0 0 34 0 0.368
22 47 0 5 2 1 2 33 1 0.561
23 47 0 6 0 1 1 32 1 0.445
24 47 0 7 0 0 2 31 1 0.405
25 47 0 8 2 0 1 35 0 0.356
26 47 0 9 1 1 2 33 1 0.719
27 47 0 10 1 0 2 31 1 0.546
28 47 0 11 1 1 0 31 1 0.602
29 47 0 12 2 1 1 32 1 1.601
30 47 0 13 0 1 2 32 1 0.482
31 47 0 14 0 1 1 36 1 0.427
32 47 0 15 0 0 1 32 0 0.493
33 47 0 16 2 1 2 33 0 0.612
34 47 0 17 0 0 2 36 0 0.495
35 47 0 18 1 0 1 32 0 0.461
36 47 0 19 2 0 1 35 1 5.888
37 47 0 20 0 1 1 32 1 0.722
38 47 0 21 2 1 0 31 1 0.58
39 47 0 22 1 1 1 33 1 0.449
40 47 0 23 1 0 2 33 0 0.48
41 47 0 24 2 1 2 32 1 0.599
42 47 0 25 2 0 0 32 0 0.577
43 47 0 26 2 0 0 32 0 0.357
44 47 0 27 2 1 0 38 1 0.479
45 47 0 28 2 0 1 31 0 0.437
46 47 0 29 0 0 1 31 0 0.672
47 47 0 30 1 1 0 33 1 0.453
48 47 0 31 0 1 0 31 1 0.462
49 47 0 32 0 0 0 33 0 0.412
50 47 0 33 1 0 0 31 0 0.341
51 47 0 34 0 0 0 32 0 0.385
52 47 0 35 2 1 2 31 0 0.369
53 47 1 36 0 0 1 32 1 0.751
54 47 1 37 2 0 2 33 0 0.34
55 47 1 38 0 0 2 31 0 0.322
56 47 1 39 1 0 1 32 0 0.29
57 47 1 40 0 0 0 31 0 0.338
58 47 1 41 2 1 2 32 0 0.499
59 47 1 42 0 1 1 35 1 0.355
60 47 1 43 1 0 0 32 1 0.353
61 47 1 44 0 0 1 32 0 0.709
62 47 1 45 2 0 0 31 0 0.324
63 47 1 46 0 1 0 31 1 0.498
64 47 1 47 1 0 2 32 0 0.624
65 47 1 48 0 0 2 34 0 0.48
66 47 1 49 1 0 1 31 0 0.447
67 47 1 50 2 1 2 31 1 0.433
68 47 1 51 0 1 0 31 0 0.336
69 47 1 52 1 1 2 33 1 0.485
70 47 1 53 0 0 1 32 1 0.336
71 47 1 54 2 1 1 32 1 0.438
72 47 1 55 2 0 2 32 0 0.498
73 47 1 56 2 1 2 31 0 0.369
74 47 1 57 0 0 1 31 0 0.709
75 47 1 58 1 0 2 32 0 0.468
76 47 1 59 0 1 1 34 1 0.858
77 47 1 60 0 0 1 41 0 0.439
78 47 1 61 0 1 1 36 1 0.497
79 47 1 62 0 1 1 37 1 0.73
80 47 1 63 1 0 1 31 0 0.496
81 47 1 64 0 0 2 36 0 0.497
82 47 1 65 2 0 2 36 0 0.462
83 47 1 66 0 1 0 34 1 0.477
84 47 1 67 1 1 0 33 1 0.562
85 47 1 68 0 0 2 37 0 0.539
86 47 1 69 1 1 2 31 1 0.546
87 47 1 70 2 0 1 35 0 0.318
88 47 1 71 1 0 0 31 0 0.497
89 47 2 72 1 0 1 38 0 0.456
90 47 2 73 0 0 0 32 0 0.402
91 47 2 74 1 0 2 32 0 0.282
92 47 2 75 1 1 1 31 0 0.448
93 47 2 76 0 1 0 34 1 0.385
94 47 2 77 0 1 2 31 1 0.401
95 47 2 78 2 1 1 37 1 0.416
96 47 2 79 1 1 2 31 1 0.433
97 47 2 80 1 1 2 31 1 0.364
98 47 2 81 0 0 2 33 0 0.525
99 47 2 82 2 0 2 33 0 0.307
100 47 2 83 1 1 1 31 0 0.499
101 47 2 84 1 1 2 31 0 0.484
102 47 2 85 1 1 1 33 1 0.453
103 47 2 86 0 0 0 31 0 0.465
104 47 2 87 1 1 0 31 1 0.429
105 47 2 88 1 1 0 33 1 0.623
106 47 2 89 1 0 1 33 0 0.453
107 47 2 90 0 1 0 31 1 0.513
108 47 2 91 0 0 0 37 0 0.427
109 47 2 92 2 1 0 37 1 0.422
110 47 2 93 2 0 0 31 0 0.435
111 47 2 94 1 1 1 34 1 0.431
112 47 2 95 0 1 2 31 1 0.447
113 47 2 96 2 1 1 31 1 0.475
114 47 2 97 1 1 0 31 1 0.355
115 47 2 98 0 0 2 31 1 0.385
116 47 2 99 1 1 2 32 0 0.421
117 47 2 100 0 1 2 31 1 0.453
118 47 2 101 0 0 1 33 0 0.431
119 47 2 102 0 1 0 33 1 0.543
120 47 2 103 1 1 2 31 0 0.629
121 47 2 104 0 0 2 35 0 0.72
122 47 2 105 0 1 0 39 1 0.445
123 47 2 106 2 1 1 32 1 0.596
124 47 2 107 0 1 2 31 1 0.485
125 47 3 108 2 1 0 35 1 0.461
126 47 3 109 2 0 0 32 1 0.356
127 47 3 110 1 1 0 34 1 0.581
128 47 3 111 2 1 2 32 0 0.513
129 47 3 112 1 0 2 34 0 0.351
130 47 3 113 1 1 1 33 1 0.399
131 47 3 114 0 1 2 31 1 0.448
132 47 3 115 0 1 0 33 1 0.447
133 47 3 116 2 0 2 32 0 0.582
134 47 3 117 2 0 1 33 0 0.368
135 47 3 118 1 1 2 34 1 0.527
136 47 3 119 2 0 1 41 0 0.527
137 47 3 120 2 1 0 31 1 0.449
138 47 3 121 1 0 0 33 0 0.543
139 47 3 122 1 1 2 31 1 0.468
140 47 3 123 2 1 1 33 1 0.625
141 47 3 124 2 1 2 31 1 0.485
142 47 3 125 0 0 2 33 0 0.463
143 47 3 126 0 1 1 32 1 0.423
144 47 3 127 2 0 0 34 0 0.433
145 47 3 128 1 0 0 34 1 0.398
146 47 3 129 0 1 2 33 1 0.514
147 47 3 130 0 0 0 31 0 0.463
148 47 3 131 2 1 0 36 1 0.659
149 47 3 132 1 0 2 35 0 0.433
150 47 3 133 2 0 2 35 0 0.542
151 47 3 134 0 0 1 31 0 0.483
152 47 3 135 2 1 1 32 1 0.401
153 47 3 136 0 0 0 32 0 0.511
154 47 3 137 1 0 1 31 0 0.463
155 47 3 138 0 0 0 31 0 0.462
156 47 3 139 1 0 1 32 0 0.42
157 47 3 140 2 1 0 36 1 0.48
158 47 3 141 2 1 1 35 1 0.686
159 47 3 142 1 1 1 31 1 0.401
160 47 3 143 1 0 1 31 0 0.546
161 47 4 144 1 0 0 31 0 0.493
162 47 4 145 0 0 1 31 0 0.451
163 47 4 146 2 0 0 31 0 0.337
164 47 4 147 0 0 2 32 0 0.401
165 47 4 148 0 1 0 33 1 0.43
166 47 4 149 0 1 0 31 1 0.432
167 47 4 150 2 1 1 31 1 0.354
168 47 4 151 0 0 2 32 0 0.625
169 47 4 152 0 1 2 34 1 0.337
170 47 4 153 2 0 1 33 0 0.385
171 47 4 154 1 0 2 37 0 0.383
172 47 4 155 2 0 0 31 0 0.37
173 47 4 156 1 0 2 31 0 0.418
174 47 4 157 0 1 1 32 1 0.383
175 47 4 158 1 0 1 33 0 0.578
176 47 4 159 1 1 0 33 1 0.478
177 47 4 160 1 1 1 32 1 0.452
178 47 4 161 2 1 0 32 1 0.433
179 47 4 162 2 1 0 31 1 0.418
180 47 4 163 1 0 0 35 0 0.318
181 47 4 164 1 0 0 31 0 0.37
182 47 4 165 2 0 2 35 0 0.367
183 47 4 166 2 0 2 31 0 0.371
184 47 4 167 2 1 0 35 0 0.304
185 47 4 168 1 0 1 32 0 0.581
186 47 4 169 1 1 1 34 1 0.398
187 47 4 170 2 1 1 31 1 0.482
188 47 4 171 0 1 2 31 1 0.464
189 47 4 172 0 0 1 32 0 0.544
190 47 4 173 0 1 2 33 1 0.541
191 47 4 174 2 1 2 34 1 0.468
192 47 4 175 1 1 1 32 1 0.592
193 47 4 176 0 1 2 33 1 0.481
194 47 4 177 2 0 2 32 0 0.752
195 47 4 178 1 0 0 34 0 0.528
196 47 4 179 1 0 2 35 0 0.562
197 47 5 180 0 0 1 32 1 0.761
198 47 5 181 2 0 0 31 0 0.442
199 47 5 182 0 0 0 31 0 0.434
200 47 5 183 1 1 2 33 1 0.448
201 47 5 184 2 1 1 32 1 0.418
202 47 5 185 2 0 2 33 0 0.448
203 47 5 186 1 1 0 32 1 0.385
204 47 5 187 2 0 1 34 0 0.287
205 47 5 188 2 0 0 33 0 0.418
206 47 5 189 2 1 0 31 1 0.418
207 47 5 190 1 1 0 31 1 0.433
208 47 5 191 1 0 0 31 0 0.416
209 47 5 192 1 1 0 38 1 0.556
210 47 5 193 0 1 2 36 1 0.462
211 47 5 194 2 0 2 33 0 0.34
212 47 5 195 0 0 0 32 1 0.321
213 47 5 196 2 0 2 32 0 0.342
214 47 5 197 2 1 1 33 1 0.434
215 47 5 198 0 1 1 31 0 0.336
216 47 5 199 2 0 1 31 0 0.535
217 47 5 200 1 1 0 41 1 0.394
218 47 5 201 1 0 2 32 0 0.403
219 47 5 202 0 0 0 34 1 0.319
220 47 5 203 0 1 0 32 1 0.451
221 47 5 204 2 1 2 31 1 0.45
222 47 5 205 0 1 1 32 0 0.367
223 47 5 206 1 0 1 31 0 0.373
224 47 5 207 2 0 1 34 0 0.418
225 47 5 208 2 0 0 34 0 0.352
226 47 5 209 1 1 1 31 1 0.449
227 47 5 210 1 0 2 31 0 0.658
228 47 5 211 2 1 2 31 0 0.341
229 47 5 212 2 0 1 33 0 0.343
230 47 5 213 1 1 1 33 0 0.418
231 47 5 214 2 0 1 43 0 0.543
232 47 5 215 2 0 0 32 0 0.308
233 51 0 0 1 1 1 32 1 0.782
234 51 0 1 1 1 2 31 1 0.483
235 51 0 2 1 1 0 33 1 0.516
236 51 0 3 1 1 1 31 1 0.403
237 51 0 4 1 0 2 33 0 0.419
238 51 0 5 0 0 1 34 0 0.401
239 51 0 6 0 0 0 31 0 0.42
240 51 0 7 0 0 1 32 0 0.371
241 51 0 8 1 1 1 39 1 0.493
242 51 0 9 1 1 1 33 1 0.436
243 51 0 10 1 0 2 31 1 0.516
244 51 0 11 1 0 1 31 0 0.552
245 51 0 12 0 1 0 33 1 0.512
246 51 0 13 1 0 2 32 0 0.539
247 51 0 14 1 0 1 31 0 0.469
248 51 0 15 0 1 2 31 1 0.435
249 51 0 16 1 1 2 31 0 0.548
250 51 0 17 0 1 0 32 1 0.614
251 51 0 18 1 0 0 31 0 0.45
252 51 0 19 1 1 0 38 1 0.447
253 51 0 20 0 1 2 33 1 0.56
254 51 0 21 1 0 0 33 0 0.485
255 51 0 22 0 0 2 31 1 0.466
256 51 0 23 0 1 2 31 1 0.439
257 51 0 24 0 1 1 34 1 0.577
258 51 0 25 0 0 0 32 0 0.528
259 51 0 26 1 1 0 41 1 0.529
260 51 0 27 1 1 0 31 1 0.593
261 51 0 28 1 0 0 35 0 0.435
262 51 0 29 0 1 0 32 1 0.53
263 51 0 30 0 1 1 33 1 0.536
264 51 0 31 1 0 2 31 0 0.514
265 51 0 32 0 0 1 31 0 0.657
266 51 0 33 0 0 1 31 0 0.5
267 51 0 34 0 0 2 31 0 0.497
268 51 0 35 1 1 0 33 1 0.577
269 51 1 36 0 0 1 32 0 0.573
270 51 1 37 0 1 1 33 1 0.571
271 51 1 38 0 0 1 32 0 0.483
272 51 1 39 1 1 2 31 1 0.596
273 51 1 40 0 0 1 36 0 0.543
274 51 1 41 0 1 0 33 1 0.421
275 51 1 42 1 1 1 31 0 0.436
276 51 1 43 0 1 0 32 1 0.387
277 51 1 44 1 1 2 31 1 0.597
278 51 1 45 0 1 0 32 1 0.513
279 51 1 46 0 0 2 39 1 0.461
280 51 1 47 0 1 1 35 1 0.644
281 51 1 48 0 0 1 33 0 0.479
282 51 1 49 0 1 0 34 1 0.624
283 51 1 50 0 0 0 31 0 0.516
284 51 1 51 0 0 2 33 0 0.528
285 51 1 52 0 1 1 32 1 0.624
286 51 1 53 0 0 2 31 0 0.613
287 51 1 54 1 0 2 32 0 0.496
288 51 1 55 0 1 2 32 1 0.53
289 51 1 56 0 1 2 35 1 0.656
290 51 1 57 0 1 2 35 1 0.482
291 51 1 58 0 1 1 32 1 0.512
292 51 1 59 1 1 1 32 1 0.454
293 51 1 60 0 0 0 32 0 0.514
294 51 1 61 1 1 0 31 1 0.882
295 51 1 62 1 0 2 32 0 0.691
296 51 1 63 0 0 2 33 1 0.66
297 51 1 64 1 1 2 31 1 0.454
298 51 1 65 1 0 2 31 0 0.967
299 51 1 66 0 1 1 32 1 0.578
300 51 1 67 0 1 1 32 1 0.657
301 51 1 68 0 0 0 31 0 0.5
302 51 1 69 0 1 0 31 1 0.563
303 51 1 70 1 0 2 33 0 0.578
304 51 1 71 1 0 1 35 0 0.469
305 51 2 72 1 0 0 31 0 0.482
306 51 2 73 1 0 2 31 0 0.345
307 51 2 74 0 0 0 32 0 0.373
308 51 2 75 1 1 1 31 1 0.435
309 51 2 76 1 0 0 32 0 0.465
310 51 2 77 1 0 0 31 0 0.532
311 51 2 78 0 0 0 32 0 0.499
312 51 2 79 1 0 1 36 0 0.481
313 51 2 80 1 0 1 31 0 0.547
314 51 2 81 1 0 1 31 0 0.467
315 51 2 82 0 1 2 32 1 0.449
316 51 2 83 1 0 2 32 0 0.579
317 51 2 84 1 1 2 37 1 0.494
318 51 2 85 1 0 1 32 0 0.454
319 51 2 86 1 1 0 38 1 0.478
320 51 2 87 0 0 2 32 0 0.534
321 51 2 88 0 0 1 38 0 0.526
322 51 2 89 1 0 0 32 0 0.404
323 51 2 90 1 0 1 31 0 0.437
324 51 2 91 1 1 1 31 1 0.565
325 51 2 92 1 1 1 32 1 0.579
326 51 2 93 0 0 1 34 0 0.513
327 51 2 94 0 1 0 31 1 0.595
328 51 2 95 0 0 1 36 0 0.356
329 51 2 96 1 1 2 34 1 0.403
330 51 2 97 0 0 2 31 0 0.387
331 51 2 98 1 0 1 31 0 0.435
332 51 2 99 1 1 0 31 0 0.453
333 51 2 100 0 0 2 32 0 0.388
334 51 2 101 1 1 0 35 1 0.669
335 51 2 102 0 1 1 31 1 0.515
336 51 2 103 1 1 2 36 1 0.538
337 51 2 104 1 1 1 32 1 0.483
338 51 2 105 1 1 1 31 1 0.545
339 51 2 106 1 1 1 34 1 0.44
340 51 2 107 0 0 1 36 1 0.433
341 51 3 108 1 0 1 33 0 0.368
342 51 3 109 1 1 0 32 1 0.53
343 51 3 110 1 0 0 32 0 0.593
344 51 3 111 0 0 2 31 0 0.533
345 51 3 112 0 0 1 36 0 0.495
346 51 3 113 0 1 1 31 1 0.608
347 51 3 114 1 0 0 37 0 0.562
348 51 3 115 1 0 2 31 0 0.563
349 51 3 116 0 1 2 34 1 0.512
350 51 3 117 1 0 2 37 0 0.543
351 51 3 118 0 1 1 33 1 0.58
352 51 3 119 0 0 2 35 0 0.575
353 51 3 120 0 1 1 37 1 0.496
354 51 3 121 1 1 2 32 0 0.562
355 51 3 122 1 0 1 31 0 0.583
356 51 3 123 0 1 0 32 1 0.625
357 51 3 124 0 0 2 33 0 0.548
358 51 3 125 0 0 0 34 0 0.561
359 51 3 126 0 0 1 32 0 0.421
360 51 3 127 0 0 1 31 0 0.404
361 51 3 128 0 1 1 31 1 0.628
362 51 3 129 0 1 2 31 1 0.438
363 51 3 130 1 0 0 32 0 0.499
364 51 3 131 0 0 0 31 0 0.643
365 51 3 132 0 0 2 31 0 0.506
366 51 3 133 1 0 2 31 0 0.503
367 51 3 134 0 1 0 31 1 0.484
368 51 3 135 0 1 0 33 1 0.546
369 51 3 136 1 0 2 32 0 0.736
370 51 3 137 1 1 0 33 1 0.547
371 51 3 138 1 1 0 31 1 0.626
372 51 3 139 1 1 2 31 1 0.502
373 51 3 140 1 1 0 35 1 0.561
374 51 3 141 1 1 2 37 1 0.499
375 51 3 142 1 0 1 32 0 0.61
376 51 3 143 0 1 0 36 1 0.51
377 51 4 144 1 1 0 40 1 0.524
378 51 4 145 1 1 0 33 0 0.435
379 51 4 146 1 1 2 35 1 0.677
380 51 4 147 0 1 2 32 1 0.527
381 51 4 148 0 1 2 31 1 0.454
382 51 4 149 1 0 2 31 0 0.547
383 51 4 150 0 1 2 37 1 0.494
384 51 4 151 0 0 0 37 0 0.558
385 51 4 152 1 1 2 35 1 0.373
386 51 4 153 0 1 2 33 0 0.386
387 51 4 154 1 0 1 34 0 0.674
388 51 4 155 1 1 1 35 1 0.497
389 51 4 156 0 0 0 32 0 0.497
390 51 4 157 0 1 0 31 1 0.466
391 51 4 158 1 1 0 32 1 0.563
392 51 4 159 1 0 2 32 0 0.579
393 51 4 160 0 0 2 33 0 0.489
394 51 4 161 0 1 1 32 1 0.515
395 51 4 162 0 0 0 35 0 0.511
396 51 4 163 1 1 1 31 1 0.518
397 51 4 164 1 1 2 31 1 0.468
398 51 4 165 0 0 2 33 1 0.482
399 51 4 166 1 1 0 34 1 0.624
400 51 4 167 1 0 1 32 0 0.564
401 51 4 168 0 0 0 31 0 0.578
402 51 4 169 1 0 2 32 0 0.502
403 51 4 170 0 0 1 34 0 0.433
404 51 4 171 1 1 1 32 1 0.563
405 51 4 172 1 1 2 32 1 0.529
406 51 4 173 1 1 1 34 1 0.657
407 51 4 174 0 0 2 36 0 0.61
408 51 4 175 1 0 0 32 1 0.437
409 51 4 176 0 0 2 31 1 0.949
410 51 4 177 0 1 1 31 1 0.564
411 51 4 178 0 1 2 33 1 0.481
412 51 4 179 0 0 0 33 0 0.498
413 51 5 180 1 0 1 33 0 0.685
414 51 5 181 1 1 2 32 1 0.532
415 51 5 182 0 1 0 31 1 0.482
416 51 5 183 0 1 0 32 1 0.48
417 51 5 184 1 0 0 34 0 0.512
418 51 5 185 1 1 1 31 1 0.679
419 51 5 186 1 0 0 31 0 0.482
420 51 5 187 1 1 1 31 1 0.563
421 51 5 188 0 0 0 32 0 0.546
422 51 5 189 1 0 0 32 0 0.529
423 51 5 190 0 1 2 32 1 0.609
424 51 5 191 1 0 0 31 0 0.438
425 51 5 192 0 1 2 33 1 0.465
426 51 5 193 1 1 0 31 1 0.626
427 51 5 194 1 0 0 31 0 0.406
428 51 5 195 0 0 0 31 0 0.531
429 51 5 196 0 1 2 33 1 0.495
430 51 5 197 0 0 0 33 0 0.39
431 51 5 198 0 0 2 31 0 0.627
432 51 5 199 0 1 1 35 1 0.574
433 51 5 200 0 1 1 33 1 0.626
434 51 5 201 1 0 1 34 0 0.484
435 51 5 202 1 0 0 32 0 0.531
436 51 5 203 0 1 2 31 1 0.547
437 51 5 204 1 0 1 34 0 0.593
438 51 5 205 0 0 1 31 0 0.527
439 51 5 206 1 0 2 35 0 0.468
440 51 5 207 0 0 0 34 0 0.432
441 51 5 208 1 0 1 31 0 0.497
442 51 5 209 1 0 0 31 0 0.46
443 51 5 210 0 0 1 37 0 0.451
444 51 5 211 0 1 0 31 1 0.515
445 51 5 212 0 1 1 31 1 0.45
446 51 5 213 1 1 2 31 1 0.451
447 51 5 214 1 1 2 31 1 0.435
448 51 5 215 0 1 0 33 1 0.476
449 56 0 0 1 1 2 37 0 1.357
450 56 0 1 0 0 0 34 0 0.626
451 56 0 2 1 0 1 32 0 0.731
452 56 0 3 1 1 0 32 1 1.088
453 56 0 4 1 0 2 31 0 1.289
454 56 0 5 0 0 1 31 0 0.788
455 56 0 6 0 0 0 31 0 0.5
456 56 0 7 1 0 2 32 0 0.49
457 56 0 8 1 0 0 31 0 0.596
458 56 0 9 1 0 0 33 0 0.641
459 56 0 10 1 0 0 32 0 0.469
460 56 0 11 1 1 0 32 1 0.594
461 56 0 12 0 1 2 32 1 0.751
462 56 0 13 1 1 0 33 1 0.562
463 56 0 14 0 0 2 31 0 0.753
464 56 0 15 1 1 2 31 1 0.612
465 56 0 16 1 0 1 36 0 0.671
466 56 0 17 0 1 2 32 1 0.548
467 56 0 18 0 0 0 33 0 0.545
468 56 0 19 1 1 2 32 1 2.588
469 56 0 20 0 1 1 33 1 0.542
470 56 0 21 0 1 1 33 1 0.483
471 56 0 22 0 1 1 31 1 0.53
472 56 0 23 0 0 2 33 1 0.544
473 56 0 24 0 1 1 31 1 0.727
474 56 0 25 1 0 2 31 0 1.057
475 56 0 26 0 1 0 32 1 0.692
476 56 0 27 1 0 2 34 0 0.739
477 56 0 28 0 1 0 32 1 0.531
478 56 0 29 1 1 0 33 1 1.089
479 56 0 30 1 1 2 32 1 0.724
480 56 0 31 0 1 0 31 1 0.692
481 56 0 32 0 0 0 32 0 0.693
482 56 0 33 1 0 2 38 0 0.993
483 56 0 34 0 0 0 31 0 0.641
484 56 0 35 0 0 2 33 0 0.772
485 56 1 36 1 0 1 32 0 0.942
486 56 1 37 1 0 2 31 0 0.507
487 56 1 38 0 1 0 32 1 0.5
488 56 1 39 0 0 2 31 0 0.706
489 56 1 40 1 1 1 36 1 0.53
490 56 1 41 1 1 0 32 1 0.625
491 56 1 42 0 1 2 32 1 0.452
492 56 1 43 0 0 1 33 0 0.605
493 56 1 44 1 1 0 32 1 0.448
494 56 1 45 1 1 1 31 1 0.587
495 56 1 46 0 0 0 31 0 0.499
496 56 1 47 1 1 1 32 1 0.594
497 56 1 48 0 0 1 31 0 0.625
498 56 1 49 0 1 2 32 1 0.452
499 56 1 50 1 0 2 32 0 0.611
500 56 1 51 0 0 0 33 0 0.607
501 56 1 52 1 1 1 32 1 0.516
502 56 1 53 1 0 0 31 0 0.532
503 56 1 54 1 1 2 34 1 0.53
504 56 1 55 1 0 0 32 0 0.544
505 56 1 56 1 0 1 32 0 0.518
506 56 1 57 1 0 0 36 0 1.098
507 56 1 58 1 1 1 31 1 0.594
508 56 1 59 1 0 2 32 0 0.753
509 56 1 60 1 0 1 31 0 0.532
510 56 1 61 0 1 0 34 1 0.641
511 56 1 62 0 1 1 32 1 0.471
512 56 1 63 0 0 2 31 1 0.452
513 56 1 64 0 1 2 31 1 0.724
514 56 1 65 1 0 0 36 0 0.482
515 56 1 66 1 0 2 33 0 0.818
516 56 1 67 0 0 0 31 0 0.562
517 56 1 68 0 1 0 31 1 0.507
518 56 1 69 1 1 1 33 1 0.563
519 56 1 70 0 0 0 35 0 0.46
520 56 1 71 0 0 1 35 0 0.466
521 56 2 72 0 1 2 32 1 0.814
522 56 2 73 0 0 0 33 0 0.463
523 56 2 74 1 1 0 31 1 0.514
524 56 2 75 0 1 1 31 0 0.482
525 56 2 76 1 0 0 32 0 0.583
526 56 2 77 0 1 1 31 1 0.515
527 56 2 78 1 0 2 31 0 0.611
528 56 2 79 1 0 2 32 0 0.502
529 56 2 80 0 1 2 31 1 0.433
530 56 2 81 1 0 1 45 0 0.476
531 56 2 82 0 0 1 32 0 0.548
532 56 2 83 1 0 1 31 0 0.755
533 56 2 84 0 0 0 33 0 0.595
534 56 2 85 1 1 0 33 1 0.577
535 56 2 86 1 0 0 39 0 0.513
536 56 2 87 0 0 2 32 0 0.785
537 56 2 88 0 0 1 33 0 0.385
538 56 2 89 0 0 1 32 0 0.497
539 56 2 90 1 1 0 31 1 0.658
540 56 2 91 1 0 1 31 0 0.629
541 56 2 92 0 0 0 31 0 0.593
542 56 2 93 1 0 2 32 0 0.357
543 56 2 94 0 1 0 31 0 0.323
544 56 2 95 1 1 0 33 1 0.5
545 56 2 96 0 1 1 31 1 0.467
546 56 2 97 0 0 2 40 0 0.508
547 56 2 98 0 0 1 31 0 0.595
548 56 2 99 0 0 2 31 0 1.073
549 56 2 100 0 1 2 36 1 0.578
550 56 2 101 0 1 1 32 0 0.671
551 56 2 102 0 0 2 32 0 0.692
552 56 2 103 0 1 2 34 1 1.012
553 56 2 104 1 1 0 37 1 0.575
554 56 2 105 1 0 1 41 0 0.463
555 56 2 106 0 1 0 33 1 0.56
556 56 2 107 1 1 2 33 0 1.013
557 56 3 108 0 0 0 31 0 0.845
558 56 3 109 0 0 1 31 0 0.508
559 56 3 110 0 0 1 31 0 0.579
560 56 3 111 1 1 0 31 1 0.482
561 56 3 112 0 0 2 31 0 0.667
562 56 3 113 1 1 1 35 1 0.448
563 56 3 114 1 1 2 33 1 0.625
564 56 3 115 0 1 1 33 1 0.435
565 56 3 116 0 1 0 35 1 0.447
566 56 3 117 0 1 1 31 1 0.465
567 56 3 118 1 0 0 40 0 0.557
568 56 3 119 0 1 2 31 1 0.435
569 56 3 120 0 1 0 33 1 0.561
570 56 3 121 0 1 1 32 1 0.544
571 56 3 122 1 1 2 32 1 0.517
572 56 3 123 0 0 2 32 0 0.706
573 56 3 124 0 1 1 31 1 0.564
574 56 3 125 0 1 2 33 1 0.513
575 56 3 126 0 0 2 32 0 0.689
576 56 3 127 1 1 1 32 1 0.754
577 56 3 128 0 0 0 32 0 0.515
578 56 3 129 0 0 2 33 0 0.784
579 56 3 130 0 0 2 32 0 0.529
580 56 3 131 0 1 1 31 1 0.594
581 56 3 132 0 1 0 32 1 0.533
582 56 3 133 1 1 1 31 1 0.835
583 56 3 134 0 0 0 35 0 0.701
584 56 3 135 1 1 1 33 1 0.562
585 56 3 136 0 0 2 34 0 0.863
586 56 3 137 1 0 1 31 0 0.515
587 56 3 138 0 0 2 31 0 0.819
588 56 3 139 1 0 2 31 0 0.66
589 56 3 140 0 1 0 31 1 0.673
590 56 3 141 0 1 1 31 1 0.516
591 56 3 142 1 0 1 31 0 0.564
592 56 3 143 0 0 1 33 0 0.316
593 56 4 144 0 1 2 31 0 0.702
594 56 4 145 1 1 0 33 1 0.803
595 56 4 146 0 1 0 34 1 0.402
596 56 4 147 1 0 0 35 0 0.592
597 56 4 148 1 0 0 31 0 0.47
598 56 4 149 0 1 1 33 1 0.466
599 56 4 150 0 0 0 31 0 0.482
600 56 4 151 1 1 1 32 1 0.514
601 56 4 152 0 0 1 31 0 0.371
602 56 4 153 0 1 1 31 1 0.387
603 56 4 154 0 0 1 31 0 0.517
604 56 4 155 1 0 1 32 1 0.577
605 56 4 156 0 0 1 39 0 0.656
606 56 4 157 1 1 2 31 1 0.677
607 56 4 158 1 0 0 32 0 0.501
608 56 4 159 1 0 2 35 0 0.785
609 56 4 160 1 1 2 32 1 0.836
610 56 4 161 0 1 2 35 1 1.202
611 56 4 162 0 0 2 32 1 0.563
612 56 4 163 1 1 2 33 1 0.709
613 56 4 164 0 1 2 31 1 0.549
614 56 4 165 1 0 1 37 0 0.415
615 56 4 166 1 1 2 31 1 1.251
616 56 4 167 0 0 1 38 0 0.415
617 56 4 168 1 0 1 35 0 0.675
618 56 4 169 0 1 1 33 1 1.268
619 56 4 170 1 1 2 32 1 0.546
620 56 4 171 1 0 1 31 0 0.497
621 56 4 172 0 1 0 31 1 0.945
622 56 4 173 1 1 0 31 1 0.721
623 56 4 174 1 1 0 39 1 0.416
624 56 4 175 0 1 0 32 1 0.418
625 56 4 176 1 0 1 33 0 0.595
626 56 4 177 0 0 1 36 0 0.398
627 56 4 178 1 1 0 31 1 0.499
628 56 4 179 0 1 0 32 1 0.474
629 56 5 180 0 1 2 31 1 1.167
630 56 5 181 0 0 1 32 0 0.387
631 56 5 182 1 0 1 31 0 0.581
632 56 5 183 1 1 1 31 1 0.643
633 56 5 184 1 0 0 33 0 0.549
634 56 5 185 1 0 2 31 1 0.803
635 56 5 186 0 1 2 35 1 1.042
636 56 5 187 0 1 2 35 1 0.543
637 56 5 188 1 1 2 31 1 0.615
638 56 5 189 0 1 2 33 1 0.768
639 56 5 190 1 1 1 34 1 0.609
640 56 5 191 1 0 0 32 0 0.485
641 56 5 192 1 1 2 32 1 0.611
642 56 5 193 0 0 2 31 0 1.425
643 56 5 194 0 0 1 31 0 0.562
644 56 5 195 0 0 0 32 0 0.578
645 56 5 196 1 0 2 32 1 0.592
646 56 5 197 1 0 1 31 0 0.775
647 56 5 198 1 1 1 33 1 0.676
648 56 5 199 1 0 2 31 0 0.885
649 56 5 200 1 1 1 31 1 0.595
650 56 5 201 1 1 1 31 1 0.547
651 56 5 202 1 1 2 33 1 0.466
652 56 5 203 1 1 1 38 1 0.447
653 56 5 204 1 1 0 31 1 0.457
654 56 5 205 1 0 0 32 0 0.627
655 56 5 206 1 1 2 31 1 0.737
656 56 5 207 1 0 0 38 0 0.528
657 56 5 208 1 0 2 34 0 0.673
658 56 5 209 1 1 1 32 1 0.707
659 56 5 210 0 1 0 31 1 0.968
660 56 5 211 0 1 0 33 1 0.498
661 56 5 212 1 1 0 31 1 0.514
662 56 5 213 0 0 0 31 0 0.53
663 56 5 214 1 0 0 37 0 0.51
664 56 5 215 1 1 2 36 1 0.643
665 57 0 0 0 0 2 33 1 2.012
666 57 0 1 1 1 0 34 1 0.899
667 57 0 2 0 0 0 33 0 0.865
668 57 0 3 0 1 0 32 1 0.626
669 57 0 4 1 0 1 34 0 1.074
670 57 0 5 1 0 2 33 0 0.788
671 57 0 6 1 1 2 33 1 0.643
672 57 0 7 0 0 1 34 0 0.734
673 57 0 8 1 0 0 31 0 0.594
674 57 0 9 0 0 0 37 0 0.508
675 57 0 10 1 1 2 33 1 0.628
676 57 0 11 0 1 2 34 1 0.616
677 57 0 12 1 1 1 32 1 0.513
678 57 0 13 1 0 0 32 0 0.656
679 57 0 14 1 0 0 31 0 0.484
680 57 0 15 0 1 2 31 1 0.578
681 57 0 16 0 0 2 31 0 0.688
682 57 0 17 1 0 1 33 0 0.546
683 57 0 18 0 0 2 33 0 0.736
684 57 0 19 0 0 1 35 0 0.576
685 57 0 20 1 0 1 31 0 0.485
686 57 0 21 1 1 1 31 1 0.628
687 57 0 22 0 1 2 32 1 0.576
688 57 0 23 0 1 1 35 1 0.534
689 57 0 24 1 1 1 37 1 0.719
690 57 0 25 1 1 2 31 0 0.611
691 57 0 26 0 0 1 36 0 0.692
692 57 0 27 1 0 2 38 0 0.498
693 57 0 28 0 0 1 31 0 0.465
694 57 0 29 0 0 1 33 0 0.432
695 57 0 30 0 0 2 31 0 0.386
696 57 0 31 1 1 2 38 1 0.444
697 57 0 32 1 1 1 33 1 0.501
698 57 0 33 1 1 0 33 1 0.45
699 57 0 34 1 1 1 35 1 0.482
700 57 0 35 1 1 1 34 1 0.464
701 57 1 36 1 0 2 31 0 0.687
702 57 1 37 0 0 2 33 0 0.418
703 57 1 38 1 1 2 36 1 0.64
704 57 1 39 0 0 2 36 0 0.487
705 57 1 40 1 1 0 35 0 0.482
706 57 1 41 0 1 2 32 1 0.72
707 57 1 42 0 1 1 32 1 0.547
708 57 1 43 0 1 1 31 1 0.592
709 57 1 44 0 0 2 31 0 0.644
710 57 1 45 1 0 0 42 0 0.592
711 57 1 46 1 1 0 31 1 0.517
712 57 1 47 1 1 1 35 0 0.927
713 57 1 48 0 1 2 32 1 0.709
714 57 1 49 0 0 1 32 0 0.645
715 57 1 50 0 1 1 31 1 0.56
716 57 1 51 1 1 2 34 1 0.724
717 57 1 52 0 1 0 33 1 0.515
718 57 1 53 0 1 1 32 1 0.498
719 57 1 54 1 1 2 32 1 0.527
720 57 1 55 1 1 2 35 1 0.547
721 57 1 56 0 0 2 33 0 0.737
722 57 1 57 1 0 2 33 0 0.468
723 57 1 58 0 0 2 32 0 0.689
724 57 1 59 0 1 0 31 1 0.627
725 57 1 60 0 0 2 36 0 0.651
726 57 1 61 0 1 2 31 1 0.579
727 57 1 62 0 0 0 34 0 0.831
728 57 1 63 0 1 2 39 1 0.508
729 57 1 64 1 1 0 32 1 0.692
730 57 1 65 1 0 0 33 0 0.596
731 57 1 66 0 0 0 41 0 0.635
732 57 1 67 1 1 0 33 1 0.594
733 57 1 68 1 0 2 32 0 0.881
734 57 1 69 0 1 0 34 1 0.655
735 57 1 70 0 0 0 31 0 0.531
736 57 1 71 0 0 1 33 0 0.576
737 57 2 72 0 0 2 35 0 0.809
738 57 2 73 0 0 0 34 0 0.451
739 57 2 74 1 1 0 34 1 0.529
740 57 2 75 1 1 1 32 1 0.663
741 57 2 76 1 1 1 32 1 0.657
742 57 2 77 0 1 1 36 1 0.641
743 57 2 78 0 1 0 32 1 0.525
744 57 2 79 1 0 2 31 0 0.677
745 57 2 80 1 0 0 36 0 0.446
746 57 2 81 0 1 0 32 1 0.575
747 57 2 82 1 0 0 33 0 0.548
748 57 2 83 1 0 2 36 0 0.429
749 57 2 84 1 0 1 31 0 0.464
750 57 2 85 0 1 1 32 1 0.609
751 57 2 86 0 1 2 32 1 0.548
752 57 2 87 0 1 2 34 1 0.447
753 57 2 88 0 1 1 38 1 0.51
754 57 2 89 1 1 2 31 1 0.63
755 57 2 90 1 0 1 32 0 0.497
756 57 2 91 0 0 1 35 0 0.542
757 57 2 92 1 0 1 32 0 0.581
758 57 2 93 0 1 1 32 1 0.689
759 57 2 94 0 0 1 31 0 0.564
760 57 2 95 1 1 2 32 1 0.674
761 57 2 96 0 1 0 31 1 0.548
762 57 2 97 1 0 2 31 0 0.531
763 57 2 98 0 1 0 33 1 0.57
764 57 2 99 0 1 0 33 1 0.594
765 57 2 100 1 1 0 31 1 0.47
766 57 2 101 0 1 2 31 1 0.499
767 57 2 102 0 1 1 34 1 0.415
768 57 2 103 1 0 0 31 0 0.514
769 57 2 104 1 1 1 32 1 0.753
770 57 2 105 1 0 0 36 0 0.513
771 57 2 106 0 0 2 33 0 0.767
772 57 2 107 0 0 1 31 0 0.531
773 57 3 108 1 0 0 36 0 0.668
774 57 3 109 0 0 2 34 0 0.704
775 57 3 110 1 1 0 38 1 0.511
776 57 3 111 0 0 0 31 0 0.497
777 57 3 112 0 0 1 31 0 0.529
778 57 3 113 1 0 0 34 0 0.463
779 57 3 114 0 1 1 32 1 0.704
780 57 3 115 0 0 2 31 0 0.467
781 57 3 116 1 1 1 34 1 0.576
782 57 3 117 0 1 0 33 1 0.583
783 57 3 118 1 0 2 32 0 0.482
784 57 3 119 1 1 1 32 1 0.514
785 57 3 120 0 1 2 37 1 0.558
786 57 3 121 0 1 0 31 1 0.5
787 57 3 122 1 0 1 33 0 0.464
788 57 3 123 1 0 2 31 0 0.539
789 57 3 124 1 0 2 32 0 0.5
790 57 3 125 0 0 0 32 0 0.753
791 57 3 126 0 1 0 31 1 0.55
792 57 3 127 0 0 0 31 0 0.495
793 57 3 128 1 1 1 31 1 0.545
794 57 3 129 0 1 2 36 1 0.824
795 57 3 130 1 0 2 31 0 0.518
796 57 3 131 1 1 0 39 1 0.494
797 57 3 132 0 0 2 34 0 0.446
798 57 3 133 0 1 1 32 1 0.423
799 57 3 134 0 0 2 31 0 0.404
800 57 3 135 1 1 1 31 1 0.484
801 57 3 136 0 1 0 39 1 0.537
802 57 3 137 0 0 2 36 0 0.483
803 57 3 138 1 0 0 31 0 0.533
804 57 3 139 0 0 0 35 0 0.574
805 57 3 140 0 0 1 32 0 0.564
806 57 3 141 1 1 1 33 1 0.624
807 57 3 142 0 1 1 33 1 0.707
808 57 3 143 1 1 0 38 1 0.752
809 57 4 144 1 0 0 33 0 0.604
810 57 4 145 1 1 2 33 0 0.498
811 57 4 146 1 0 1 32 0 0.571
812 57 4 147 1 0 0 32 0 0.563
813 57 4 148 1 1 0 33 1 0.641
814 57 4 149 1 1 2 34 1 0.516
815 57 4 150 1 1 0 31 1 0.483
816 57 4 151 0 0 0 36 0 0.447
817 57 4 152 1 0 2 33 0 0.415
818 57 4 153 1 1 2 32 1 0.593
819 57 4 154 0 1 2 32 1 0.52
820 57 4 155 1 1 1 35 1 0.653
821 57 4 156 0 1 1 33 1 0.561
822 57 4 157 1 1 2 31 1 0.64
823 57 4 158 1 1 2 33 1 0.42
824 57 4 159 1 0 0 31 0 0.563
825 57 4 160 1 1 0 41 1 0.459
826 57 4 161 0 0 0 33 0 0.547
827 57 4 162 0 0 1 31 0 0.528
828 57 4 163 1 1 0 33 1 0.533
829 57 4 164 1 0 1 31 0 0.514
830 57 4 165 0 1 1 31 1 0.514
831 57 4 166 1 0 0 31 0 0.497
832 57 4 167 1 0 0 34 0 0.464
833 57 4 168 1 0 1 32 0 0.385
834 57 4 169 0 1 2 33 1 0.529
835 57 4 170 1 1 0 38 1 0.461
836 57 4 171 1 0 0 31 0 0.438
837 57 4 172 1 0 1 31 0 0.501
838 57 4 173 1 0 2 32 0 0.4
839 57 4 174 0 0 0 31 0 0.579
840 57 4 175 0 0 0 33 0 0.446
841 57 4 176 0 0 0 31 0 0.481
842 57 4 177 1 0 1 35 0 0.605
843 57 4 178 1 1 1 35 0 0.515
844 57 4 179 0 1 0 32 1 0.662
845 57 5 180 0 1 2 32 1 0.719
846 57 5 181 1 0 2 32 0 0.51
847 57 5 182 1 0 1 31 0 0.469
848 57 5 183 1 0 2 31 0 0.484
849 57 5 184 0 1 2 32 1 0.545
850 57 5 185 1 1 1 31 1 0.41
851 57 5 186 0 0 1 32 1 0.468
852 57 5 187 1 0 1 31 0 0.563
853 57 5 188 0 1 0 35 1 0.526
854 57 5 189 1 1 0 34 1 0.662
855 57 5 190 1 1 2 32 1 0.479
856 57 5 191 0 0 0 32 0 0.464
857 57 5 192 1 1 2 31 1 0.497
858 57 5 193 0 0 0 31 0 0.449
859 57 5 194 0 1 2 31 1 0.449
860 57 5 195 1 0 1 31 0 0.481
861 57 5 196 1 1 2 33 1 0.466
862 57 5 197 1 0 1 31 0 0.499
863 57 5 198 1 1 0 32 1 0.467
864 57 5 199 0 1 1 32 0 0.419
865 57 5 200 0 0 1 31 0 0.698
866 57 5 201 0 1 0 34 1 0.464
867 57 5 202 1 0 1 31 0 0.449
868 57 5 203 0 1 0 32 1 0.448
869 57 5 204 1 0 2 32 0 0.417
870 57 5 205 0 0 0 37 0 0.478
871 57 5 206 0 0 1 33 0 0.501
872 57 5 207 1 0 1 33 0 0.497
873 57 5 208 0 0 1 31 0 0.481
874 57 5 209 0 1 2 32 1 0.672
875 57 5 210 0 1 1 31 1 0.539
876 57 5 211 0 1 0 32 1 0.372
877 57 5 212 0 0 1 32 0 0.565
878 57 5 213 1 0 2 31 0 0.513
879 57 5 214 0 0 2 31 0 0.514
880 57 5 215 0 1 1 34 1 0.56
881 64 0 0 0 1 1 31 1 1.68
882 64 0 1 1 1 0 31 1 1.747
883 64 0 2 1 0 1 34 0 0.785
884 64 0 3 0 0 0 32 0 2.033
885 64 0 4 1 1 2 31 1 0.915
886 64 0 5 1 0 2 31 1 1.105
887 64 0 6 1 0 0 31 0 0.724
888 64 0 7 1 1 1 31 1 0.821
889 64 0 8 0 0 0 32 0 1.666
890 64 0 9 1 0 1 31 0 0.835
891 64 0 10 1 1 0 33 1 0.947
892 64 0 11 0 0 0 31 1 1.713
893 64 0 12 0 0 0 33 0 0.896
894 64 0 13 0 0 0 33 0 0.668
895 64 0 14 0 1 0 35 1 0.991
896 64 0 15 0 1 0 35 1 0.819
897 64 0 16 0 0 1 34 0 1.343
898 64 0 17 1 1 0 32 1 0.754
899 64 0 18 1 0 0 35 0 0.978
900 64 0 19 0 0 1 34 0 1.087
901 64 0 20 1 0 2 31 1 1.092
902 64 0 21 0 1 0 35 1 0.739
903 64 0 22 0 1 1 33 1 0.93
904 64 0 23 0 0 2 31 0 1.056
905 64 0 24 1 0 0 32 0 0.867
906 64 0 25 1 1 1 32 1 0.909
907 64 0 26 0 0 2 31 1 0.87
908 64 0 27 0 0 0 35 0 0.833
909 64 0 28 0 1 1 32 1 0.816
910 64 0 29 1 0 0 33 0 0.801
911 64 0 30 0 1 2 31 0 1.185
912 64 0 31 0 1 1 40 1 0.735
913 64 0 32 1 0 1 31 0 0.915
914 64 0 33 0 1 2 31 1 0.785
915 64 0 34 1 0 1 31 0 1.25
916 64 0 35 0 1 1 31 1 0.632
917 64 1 36 0 1 0 31 1 1.568
918 64 1 37 1 0 0 37 0 0.64
919 64 1 38 0 1 0 31 1 0.691
920 64 1 39 1 0 0 31 0 0.726
921 64 1 40 1 1 0 34 1 0.629
922 64 1 41 1 1 1 38 1 1.053
923 64 1 42 0 0 2 33 0 0.627
924 64 1 43 0 0 2 32 0 0.846
925 64 1 44 1 0 2 35 0 0.814
926 64 1 45 0 1 0 35 1 0.655
927 64 1 46 1 1 2 31 0 0.964
928 64 1 47 0 1 2 32 1 1.031
929 64 1 48 0 1 0 33 1 0.656
930 64 1 49 1 1 2 32 1 0.773
931 64 1 50 0 0 1 35 0 0.739
932 64 1 51 0 1 2 31 1 0.665
933 64 1 52 1 1 0 39 1 0.797
934 64 1 53 0 0 2 35 0 0.991
935 64 1 54 0 0 0 36 0 0.755
936 64 1 55 0 0 1 32 0 1.057
937 64 1 56 0 0 2 31 0 1.258
938 64 1 57 1 1 2 31 1 0.774
939 64 1 58 0 1 0 33 1 0.996
940 64 1 59 0 0 2 31 1 1.345
941 64 1 60 0 1 0 33 1 1.27
942 64 1 61 1 1 0 32 1 0.833
943 64 1 62 0 0 1 36 0 0.927
944 64 1 63 1 1 1 31 1 0.823
945 64 1 64 0 0 1 31 0 1.252
946 64 1 65 1 1 1 40 1 0.943
947 64 1 66 1 0 1 36 0 0.876
948 64 1 67 0 1 2 31 1 1.247
949 64 1 68 0 1 1 33 1 1.071
950 64 1 69 0 1 2 34 1 0.674
951 64 1 70 1 0 2 31 0 0.997
952 64 1 71 1 1 0 31 1 0.784
953 64 2 72 0 0 1 32 0 3.213
954 64 2 73 1 1 1 33 1 0.837
955 64 2 74 0 0 0 39 0 0.639
956 64 2 75 0 0 1 40 0 0.718
957 64 2 76 1 0 0 31 0 0.979
958 64 2 77 0 0 0 31 0 0.881
959 64 2 78 0 1 1 33 1 1.392
960 64 2 79 1 0 0 31 0 0.952
961 64 2 80 1 1 1 32 1 0.994
962 64 2 81 1 1 0 31 1 0.913
963 64 2 82 1 1 2 31 1 0.817
964 64 2 83 0 0 1 31 0 0.946
965 64 2 84 0 1 0 32 1 0.896
966 64 2 85 1 1 1 33 1 1.009
967 64 2 86 1 0 1 31 0 1.11
968 64 2 87 0 0 0 38 0 0.794
969 64 2 88 0 0 0 37 0 0.796
970 64 2 89 0 0 2 31 0 1.152
971 64 2 90 0 0 0 32 0 0.642
972 64 2 91 0 1 1 39 1 0.896
973 64 2 92 0 0 1 36 0 1.309
974 64 2 93 1 0 1 33 1 0.718
975 64 2 94 1 1 2 32 0 0.898
976 64 2 95 0 0 2 35 0 1.359
977 64 2 96 1 0 0 32 0 0.817
978 64 2 97 1 0 2 31 1 1.202
979 64 2 98 0 0 0 31 0 1.14
980 64 2 99 0 0 2 33 0 0.771
981 64 2 100 0 1 0 35 1 0.77
982 64 2 101 0 0 2 36 0 1.36
983 64 2 102 1 1 2 31 1 0.753
984 64 2 103 0 0 0 32 0 0.867
985 64 2 104 0 0 0 31 0 0.864
986 64 2 105 1 1 0 33 1 0.833
987 64 2 106 1 0 1 34 0 0.849
988 64 2 107 0 0 1 31 0 0.738
989 64 3 108 1 0 2 31 0 1.425
990 64 3 109 1 0 1 32 0 0.75
991 64 3 110 0 1 2 31 1 0.995
992 64 3 111 0 1 2 34 1 0.767
993 64 3 112 1 0 1 31 0 1.458
994 64 3 113 1 1 1 33 1 1.278
995 64 3 114 1 1 0 34 1 0.944
996 64 3 115 0 0 2 32 0 1.055
997 64 3 116 1 0 2 31 1 0.917
998 64 3 117 1 0 0 31 0 0.777
999 64 3 118 1 0 2 33 0 1.477
1000 64 3 119 0 0 2 34 0 0.752
1001 64 3 120 1 1 2 31 1 0.947
1002 64 3 121 1 1 0 50 1 1.624
1003 64 3 122 0 1 0 33 1 1.471
1004 64 3 123 0 1 0 35 1 0.546
1005 64 3 124 0 1 2 31 1 0.992
1006 64 3 125 1 1 2 35 1 0.788
1007 64 3 126 1 1 0 31 1 0.916
1008 64 3 127 0 1 2 33 1 0.881
1009 64 3 128 0 0 1 32 0 1.04
1010 64 3 129 1 1 1 32 1 1.397
1011 64 3 130 1 0 1 34 0 1.089
1012 64 3 131 1 0 0 32 0 0.821
1013 64 3 132 1 0 2 33 0 1.027
1014 64 3 133 0 1 0 32 1 1.055
1015 64 3 134 0 1 1 31 1 0.755
1016 64 3 135 0 1 1 31 1 0.9
1017 64 3 136 0 0 1 31 0 0.897
1018 64 3 137 1 0 0 31 0 0.898
1019 64 3 138 1 0 2 37 1 0.926
1020 64 3 139 1 1 1 32 1 0.725
1021 64 3 140 0 0 0 32 0 0.677
1022 64 3 141 0 1 1 31 1 0.742
1023 64 3 142 1 1 2 39 0 0.952
1024 64 3 143 0 1 2 32 1 1.187
1025 64 4 144 0 0 1 34 1 2.346
1026 64 4 145 1 1 1 34 1 0.914
1027 64 4 146 0 1 2 31 1 0.704
1028 64 4 147 1 1 0 32 1 0.627
1029 64 4 148 1 0 1 37 0 0.642
1030 64 4 149 1 0 2 33 0 0.597
1031 64 4 150 1 0 1 31 0 0.591
1032 64 4 151 0 1 1 31 1 0.66
1033 64 4 152 1 1 2 31 1 0.662
1034 64 4 153 1 1 1 32 1 0.977
1035 64 4 154 0 0 2 39 1 0.811
1036 64 4 155 0 1 1 33 1 0.772
1037 64 4 156 1 0 0 35 0 0.77
1038 64 4 157 0 0 2 31 0 1.01
1039 64 4 158 0 1 2 33 1 1.263
1040 64 4 159 1 1 0 34 1 0.913
1041 64 4 160 0 1 0 34 1 0.735
1042 64 4 161 1 1 0 31 1 0.915
1043 64 4 162 0 1 2 31 0 1.185
1044 64 4 163 1 0 1 34 0 0.781
1045 64 4 164 1 0 1 31 0 1.107
1046 64 4 165 0 1 1 33 1 0.914
1047 64 4 166 0 0 1 38 0 1.037
1048 64 4 167 1 0 1 34 0 0.77
1049 64 4 168 0 1 0 31 1 0.899
1050 64 4 169 1 0 1 32 0 1.234
1051 64 4 170 0 1 2 31 0 1.651
1052 64 4 171 0 0 1 33 0 2.051
1053 64 4 172 1 0 0 32 0 0.645
1054 64 4 173 1 1 2 35 1 0.789
1055 64 4 174 0 1 2 31 1 0.693
1056 64 4 175 1 1 1 35 1 0.708
1057 64 4 176 1 0 2 32 0 0.965
1058 64 4 177 0 0 2 35 1 1.308
1059 64 4 178 0 1 1 31 1 0.949
1060 64 4 179 0 1 1 35 1 0.767
1061 64 5 180 1 0 2 35 1 1.406
1062 64 5 181 1 0 1 31 0 0.933
1063 64 5 182 0 1 1 32 1 0.777
1064 64 5 183 1 0 0 32 0 0.758
1065 64 5 184 0 0 1 31 1 0.837
1066 64 5 185 0 0 0 33 0 0.674
1067 64 5 186 1 1 2 35 1 1.938
1068 64 5 187 1 0 2 31 0 1.19
1069 64 5 188 0 1 0 34 1 0.716
1070 64 5 189 0 0 2 34 1 1.2
1071 64 5 190 1 1 0 31 1 0.883
1072 64 5 191 0 1 2 32 0 0.881
1073 64 5 192 0 0 1 31 0 1.544
1074 64 5 193 1 1 2 37 0 1.103
1075 64 5 194 1 1 1 32 1 0.803
1076 64 5 195 1 1 1 34 1 0.671
1077 64 5 196 0 0 2 33 0 1.121
1078 64 5 197 0 0 0 31 0 0.852
1079 64 5 198 1 0 2 33 1 0.946
1080 64 5 199 1 1 2 33 0 0.998
1081 64 5 200 1 0 0 33 0 1.121
1082 64 5 201 1 1 2 33 1 0.819
1083 64 5 202 1 1 0 31 1 0.787
1084 64 5 203 1 1 2 31 0 0.883
1085 64 5 204 1 1 2 34 1 0.895
1086 64 5 205 1 0 2 35 1 0.751
1087 64 5 206 0 1 2 31 1 1.41
1088 64 5 207 1 0 0 34 0 0.848
1089 64 5 208 1 1 1 32 1 1.73
1090 64 5 209 0 1 1 33 1 0.881
1091 64 5 210 1 0 2 34 0 1.024
1092 64 5 211 1 0 0 33 0 0.868
1093 64 5 212 0 1 0 31 1 0.867
1094 64 5 213 1 1 1 33 1 0.914
1095 64 5 214 1 0 2 32 1 1.137
1096 64 5 215 1 1 0 33 1 0.915
1097 68 0 0 1 1 0 33 0 0.943
1098 68 0 1 0 1 0 32 1 0.707
1099 68 0 2 1 0 2 32 0 0.612
1100 68 0 3 0 0 1 34 0 0.638
1101 68 0 4 1 0 1 31 0 0.612
1102 68 0 5 1 1 1 31 1 0.72
1103 68 0 6 0 0 1 31 0 0.66
1104 68 0 7 1 0 2 31 0 0.975
1105 68 0 8 1 0 1 31 0 0.614
1106 68 0 9 1 0 1 35 0 0.815
1107 68 0 10 1 1 0 36 1 0.526
1108 68 0 11 1 0 2 38 0 0.61
1109 68 0 12 1 0 0 31 0 0.581
1110 68 0 13 1 1 2 31 1 0.657
1111 68 0 14 1 1 0 32 1 0.596
1112 68 0 15 0 0 2 33 0 0.664
1113 68 0 16 0 1 1 32 1 1.137
1114 68 0 17 1 0 2 33 0 0.674
1115 68 0 18 0 0 2 36 1 0.721
1116 68 0 19 1 1 0 31 1 0.931
1117 68 0 20 0 1 2 32 0 1.057
1118 68 0 21 1 1 0 35 1 0.642
1119 68 0 22 1 0 0 32 0 0.549
1120 68 0 23 1 0 0 38 0 0.862
1121 68 0 24 0 0 2 33 0 0.959
1122 68 0 25 1 0 1 36 0 0.659
1123 68 0 26 1 0 1 31 0 0.629
1124 68 0 27 0 1 2 32 1 0.768
1125 68 0 28 0 0 1 31 0 0.69
1126 68 0 29 1 0 1 33 0 0.598
1127 68 0 30 1 1 2 33 0 1.072
1128 68 0 31 0 0 0 31 0 0.612
1129 68 0 32 0 1 1 33 1 0.527
1130 68 0 33 1 0 2 32 0 0.598
1131 68 0 34 0 1 0 33 1 0.544
1132 68 0 35 0 1 1 31 1 0.486
1133 68 1 36 0 0 1 31 0 0.623
1134 68 1 37 1 0 0 31 0 0.533
1135 68 1 38 0 0 1 31 0 0.689
1136 68 1 39 1 0 0 36 0 0.482
1137 68 1 40 0 1 1 33 1 0.559
1138 68 1 41 0 0 1 32 0 0.564
1139 68 1 42 0 1 2 31 1 0.592
1140 68 1 43 0 0 0 36 0 0.497
1141 68 1 44 1 1 2 39 1 0.556
1142 68 1 45 1 0 2 32 1 0.596
1143 68 1 46 1 1 0 32 1 1.479
1144 68 1 47 1 0 2 34 0 0.577
1145 68 1 48 0 0 2 33 1 0.687
1146 68 1 49 0 1 2 31 1 0.691
1147 68 1 50 0 1 0 31 1 0.581
1148 68 1 51 0 0 0 31 0 0.641
1149 68 1 52 1 1 0 32 1 0.532
1150 68 1 53 0 1 0 33 1 0.752
1151 68 1 54 0 1 0 31 1 0.787
1152 68 1 55 1 0 1 31 0 0.563
1153 68 1 56 1 1 2 32 1 0.587
1154 68 1 57 1 1 2 35 1 0.754
1155 68 1 58 0 0 1 38 0 0.544
1156 68 1 59 0 0 0 34 0 0.62
1157 68 1 60 0 1 1 31 1 0.61
1158 68 1 61 0 0 0 31 0 0.533
1159 68 1 62 0 1 0 34 1 0.512
1160 68 1 63 1 1 2 31 1 0.712
1161 68 1 64 1 0 1 34 0 0.639
1162 68 1 65 1 0 0 32 0 0.596
1163 68 1 66 0 0 0 31 0 0.706
1164 68 1 67 1 0 0 33 0 0.579
1165 68 1 68 1 1 1 31 1 0.688
1166 68 1 69 0 1 0 31 1 0.577
1167 68 1 70 0 0 0 34 0 0.499
1168 68 1 71 0 1 1 31 1 0.594
1169 68 2 72 1 1 1 31 0 0.843
1170 68 2 73 0 0 2 38 0 0.896
1171 68 2 74 0 0 0 31 0 0.608
1172 68 2 75 1 0 0 31 0 0.55
1173 68 2 76 1 0 2 33 0 0.721
1174 68 2 77 0 0 2 33 0 0.707
1175 68 2 78 1 1 2 32 0 0.655
1176 68 2 79 1 1 1 37 1 0.8
1177 68 2 80 1 1 0 31 1 0.484
1178 68 2 81 1 1 1 32 1 0.483
1179 68 2 82 0 1 2 35 0 0.687
1180 68 2 83 0 0 0 31 0 0.707
1181 68 2 84 0 0 2 32 1 0.915
1182 68 2 85 0 0 0 36 0 0.596
1183 68 2 86 1 1 0 37 1 0.733
1184 68 2 87 1 1 2 32 1 0.88
1185 68 2 88 0 1 2 34 1 0.559
1186 68 2 89 0 1 1 31 1 0.485
1187 68 2 90 0 1 1 39 1 0.509
1188 68 2 91 0 0 2 31 1 0.454
1189 68 2 92 0 1 2 31 1 0.652
1190 68 2 93 1 0 0 35 0 0.497
1191 68 2 94 1 0 2 31 1 0.705
1192 68 2 95 1 0 1 31 0 0.773
1193 68 2 96 1 0 2 32 0 0.756
1194 68 2 97 1 1 2 39 1 0.656
1195 68 2 98 0 0 0 31 0 0.66
1196 68 2 99 0 0 0 32 0 0.75
1197 68 2 100 0 1 1 31 1 0.594
1198 68 2 101 1 1 2 31 0 1.046
1199 68 2 102 0 1 0 32 1 0.79
1200 68 2 103 1 1 2 33 0 0.852
1201 68 2 104 1 1 2 31 0 0.804
1202 68 2 105 1 0 1 31 0 0.708
1203 68 2 106 1 0 0 33 0 0.58
1204 68 2 107 0 0 0 33 0 0.815
1205 68 3 108 0 1 0 31 1 0.623
1206 68 3 109 0 0 2 40 0 0.607
1207 68 3 110 0 1 1 39 1 0.624
1208 68 3 111 1 1 0 34 1 0.595
1209 68 3 112 1 1 2 33 1 0.517
1210 68 3 113 1 1 1 32 1 0.625
1211 68 3 114 1 0 2 31 0 0.581
1212 68 3 115 1 0 2 35 0 0.607
1213 68 3 116 0 1 1 31 1 0.739
1214 68 3 117 0 0 2 32 1 0.483
1215 68 3 118 0 1 2 31 1 0.567
1216 68 3 119 0 1 0 32 1 0.577
1217 68 3 120 1 0 0 31 0 0.558
1218 68 3 121 0 0 2 38 1 0.657
1219 68 3 122 0 1 0 31 1 0.564
1220 68 3 123 1 1 1 31 1 0.625
1221 68 3 124 1 1 0 32 1 0.52
1222 68 3 125 1 1 2 31 0 0.548
1223 68 3 126 0 1 2 31 1 1.462
1224 68 3 127 0 0 0 32 0 0.624
1225 68 3 128 1 1 2 35 1 0.578
1226 68 3 129 1 0 0 32 0 0.672
1227 68 3 130 1 0 2 32 1 0.659
1228 68 3 131 0 1 2 35 1 0.835
1229 68 3 132 1 1 1 31 1 0.595
1230 68 3 133 1 1 0 31 1 0.679
1231 68 3 134 0 1 2 31 0 0.608
1232 68 3 135 0 1 0 31 1 1.155
1233 68 3 136 0 0 0 32 0 0.451
1234 68 3 137 1 0 2 39 1 0.638
1235 68 3 138 1 0 1 33 0 0.658
1236 68 3 139 1 1 0 31 1 0.565
1237 68 3 140 0 1 0 31 1 0.608
1238 68 3 141 0 1 0 31 1 1.051
1239 68 3 142 1 0 2 34 0 0.56
1240 68 3 143 0 0 2 31 0 0.629
1241 68 4 144 1 1 1 33 1 0.974
1242 68 4 145 0 0 1 31 0 0.677
1243 68 4 146 0 0 1 31 0 0.595
1244 68 4 147 0 0 1 33 0 0.687
1245 68 4 148 1 1 1 31 1 0.596
1246 68 4 149 1 0 1 31 0 0.587
1247 68 4 150 0 1 2 33 1 0.643
1248 68 4 151 0 1 0 32 1 0.549
1249 68 4 152 0 0 2 31 1 0.721
1250 68 4 153 1 0 0 33 0 0.675
1251 68 4 154 1 1 1 31 1 0.598
1252 68 4 155 0 1 0 31 0 0.929
1253 68 4 156 0 1 1 37 1 0.723
1254 68 4 157 0 0 1 31 0 0.659
1255 68 4 158 0 1 1 34 1 0.58
1256 68 4 159 1 0 1 32 0 0.992
1257 68 4 160 1 1 1 33 1 0.677
1258 68 4 161 0 0 2 35 1 0.948
1259 68 4 162 1 0 0 33 0 0.592
1260 68 4 163 0 0 1 32 0 0.678
1261 68 4 164 1 1 2 32 1 0.55
1262 68 4 165 0 1 0 33 1 0.609
1263 68 4 166 0 0 1 37 0 0.609
1264 68 4 167 1 1 1 31 1 0.468
1265 68 4 168 1 1 0 32 1 0.802
1266 68 4 169 1 0 0 31 0 0.556
1267 68 4 170 1 1 0 32 1 0.596
1268 68 4 171 0 1 0 32 1 0.719
1269 68 4 172 1 1 0 32 1 0.579
1270 68 4 173 1 0 0 32 0 0.542
1271 68 4 174 1 1 0 32 1 0.453
1272 68 4 175 1 1 1 34 0 0.593
1273 68 4 176 1 0 2 31 1 1.382
1274 68 4 177 0 0 0 34 0 0.642
1275 68 4 178 1 0 1 32 0 0.805
1276 68 4 179 1 0 1 38 0 0.512
1277 68 5 180 1 0 2 33 0 1.007
1278 68 5 181 0 0 1 35 0 0.594
1279 68 5 182 1 1 1 31 1 0.55
1280 68 5 183 0 0 2 31 1 0.753
1281 68 5 184 0 0 1 32 0 1.106
1282 68 5 185 0 0 0 31 0 0.548
1283 68 5 186 1 0 1 32 0 0.545
1284 68 5 187 0 1 2 32 1 0.537
1285 68 5 188 1 1 1 32 0 0.482
1286 68 5 189 0 0 2 35 0 0.837
1287 68 5 190 0 1 1 33 1 0.562
1288 68 5 191 1 1 2 33 0 0.589
1289 68 5 192 1 1 1 33 1 0.719
1290 68 5 193 0 1 2 32 1 0.45
1291 68 5 194 0 1 2 33 1 0.657
1292 68 5 195 0 0 1 31 1 0.5
1293 68 5 196 0 1 2 31 1 0.584
1294 68 5 197 1 0 2 37 0 0.607
1295 68 5 198 1 0 1 36 0 0.53
1296 68 5 199 0 0 1 32 0 0.77
1297 68 5 200 0 0 1 33 0 0.546
1298 68 5 201 0 1 2 36 1 0.685
1299 68 5 202 0 1 1 31 1 0.578
1300 68 5 203 0 1 1 31 1 0.623
1301 68 5 204 1 1 2 32 0 0.58
1302 68 5 205 1 1 0 32 1 0.838
1303 68 5 206 0 0 0 34 0 0.514
1304 68 5 207 0 1 1 37 1 0.524
1305 68 5 208 1 0 0 31 0 0.517
1306 68 5 209 0 0 2 32 1 0.657
1307 68 5 210 1 1 1 31 1 1.013
1308 68 5 211 0 0 2 32 1 0.529
1309 68 5 212 1 0 0 31 0 0.63
1310 68 5 213 0 1 1 31 1 0.64
1311 68 5 214 0 1 2 31 1 0.532
1312 68 5 215 1 0 1 32 0 0.51
