datID sessionID block trial WordInt ColorInt TrueInt Cong Correct Response rt
1 144 0 0 3 2 1 0 0 2 0.89
2 144 0 1 2 2 1 1 1 1 0.341
3 145 0 0 0 2 1 0 1 1 9.935
4 145 0 1 2 2 1 1 0 2 1.443
5 145 0 2 3 0 2 0 0 1 3.403
6 145 0 3 3 3 2 1 0 3 1.549
7 145 0 4 2 1 0 0 0 1 2.066
8 145 0 5 0 0 1 1 1 1 2.338
9 145 0 6 2 3 1 0 0 2 1.334
10 145 0 7 0 1 2 0 0 1 2.722
11 145 0 8 0 0 3 1 0 1 2.14
12 145 0 9 2 2 3 1 0 1 1.018
13 145 0 10 3 3 3 1 0 0 2.065
14 145 0 11 0 0 2 1 0 1 1.123
15 145 0 12 2 0 3 0 0 2 1.75
16 145 0 13 2 3 3 0 0 0 1.379
17 145 0 14 0 0 0 1 1 0 1.47
18 145 0 15 1 1 3 1 0 1 1.968
19 145 0 16 0 0 2 1 0 3 1.349
20 145 0 17 2 1 0 0 0 3 0.944
21 145 0 18 1 1 0 1 0 3 1.003
22 145 0 19 2 2 2 1 1 2 0.946
23 145 0 20 1 1 1 1 1 1 1.176
24 145 0 21 3 3 1 1 0 0 1.733
25 145 0 22 2 1 1 0 1 1 2.707
26 145 0 23 3 3 0 1 0 1 0.809
27 145 0 24 0 0 3 1 1 3 1.463
28 145 0 25 2 0 1 0 0 2 1.755
29 145 0 26 3 3 1 1 0 2 1.271
30 145 0 27 2 2 0 1 0 2 0.82
31 145 0 28 3 2 1 0 1 1 0.577
32 145 0 29 2 2 0 1 0 3 1.445
33 145 0 30 0 0 1 1 0 3 0.702
34 145 0 31 3 0 1 0 1 1 0.527
35 145 0 32 3 3 1 1 1 1 1.156
36 145 0 33 2 2 3 1 0 1 0.69
37 145 0 34 1 1 3 1 0 0 0.628
38 145 0 35 2 2 0 1 1 0 0.648
39 145 0 36 2 2 3 1 0 1 1.05
40 145 0 37 1 1 0 1 0 3 2.016
41 145 0 38 2 3 2 0 1 2 1.94
42 145 0 39 0 0 1 1 0 2 0.806
43 145 0 40 3 3 3 1 0 1 1.652
44 145 0 41 3 3 0 1 1 0 1.459
45 145 0 42 3 3 3 1 0 0 1.094
46 145 0 43 0 0 1 1 0 3 2.187
47 145 0 44 1 1 0 1 0 3 3.336
48 145 0 45 1 1 0 1 1 0 1.036
49 145 0 46 2 2 1 1 1 1 1.839
50 145 0 47 3 3 1 1 0 2 6.004
51 145 0 48 2 3 1 0 1 1 1.129
52 145 0 49 2 2 2 1 0 1 1.385
53 145 0 50 1 1 3 1 0 0 1.266
54 145 0 51 3 2 1 0 0 0 0.992
55 145 0 52 0 1 1 0 0 2 3.065
56 145 0 53 2 2 3 1 0 2 2.678
57 145 0 54 2 2 1 1 1 1 1.329
58 145 0 55 3 3 2 1 1 2 1.354
59 145 0 56 1 1 0 1 0 1 1.394
60 145 0 57 1 1 0 1 1 0 1.163
61 145 0 58 2 1 2 0 0 0 1.722
62 145 0 59 3 3 2 1 1 2 1.096
63 145 0 60 0 0 1 1 0 2 1.433
64 145 0 61 3 1 2 0 1 2 1.425
65 145 0 62 2 2 2 1 1 2 1.301
66 145 0 63 0 2 2 0 0 3 1.263
67 145 0 64 2 2 0 1 0 2 1.966
68 145 0 65 0 0 3 1 1 3 0.962
69 145 0 66 0 0 0 1 1 0 0.983
70 145 0 67 3 3 1 1 0 2 1.404
71 145 0 68 1 2 0 0 1 0 1.317
72 145 0 69 0 0 2 1 0 0 1.917
73 145 0 70 0 1 1 0 0 0 1.651
74 145 0 71 0 2 0 0 0 1 1.748
75 145 0 72 0 0 3 1 0 0 1.921
76 145 0 73 2 0 1 0 2 -1 1.735
77 145 0 74 3 2 2 0 0 1 1.752
78 145 0 75 0 1 3 0 1 3 1.044
79 145 0 76 2 3 3 0 1 3 1.126
80 145 0 77 1 2 1 0 0 3 1.221
81 145 0 78 2 2 0 1 1 0 1.141
82 145 0 79 1 2 3 0 1 3 1.557
83 145 1 80 3 3 0 1 0 3 4.629
84 145 1 81 3 3 3 1 1 3 0.714
85 145 1 82 3 1 2 0 1 2 1.449
86 145 1 83 0 0 0 1 1 0 2.797
87 145 1 84 0 2 3 0 1 3 1.04
88 145 1 85 0 0 2 1 1 2 2.017
89 145 1 86 3 0 0 0 0 2 1.122
90 145 1 87 0 0 1 1 0 3 3.91
91 145 1 88 2 2 3 1 0 1 1.284
92 145 1 89 1 1 2 1 1 2 0.961
93 145 1 90 3 3 0 1 1 0 1.095
94 145 1 91 0 0 1 1 0 3 2.12
95 145 1 92 1 1 1 1 1 1 0.967
96 145 1 93 2 2 1 1 0 0 1.148
97 145 1 94 3 3 2 1 1 2 0.846
98 145 1 95 1 1 2 1 1 2 0.776
99 145 1 96 0 1 1 0 1 1 1.603
100 145 1 97 1 1 0 1 0 2 1.377
101 145 1 98 3 0 3 0 1 3 2.284
102 145 1 99 0 0 2 1 0 1 1.601
103 145 1 100 2 2 0 1 1 0 0.755
104 145 1 101 1 0 3 0 0 2 1.983
105 145 1 102 1 1 2 1 1 2 0.915
106 145 1 103 0 0 3 1 0 2 0.65
107 145 1 104 2 1 3 0 1 3 1.15
108 145 1 105 0 0 0 1 0 1 1.324
109 145 1 106 3 3 1 1 1 1 1.048
110 145 1 107 2 2 3 1 1 3 1.323
111 145 1 108 1 1 3 1 0 2 1.059
112 145 1 109 0 0 0 1 0 3 0.808
113 145 1 110 3 2 3 0 0 0 2.119
114 145 1 111 0 0 2 1 1 2 0.934
115 145 1 112 2 0 1 0 1 1 1.435
116 145 1 113 0 1 1 0 0 2 1.151
117 145 1 114 2 2 3 1 0 2 1.266
118 145 1 115 1 2 2 0 1 2 1.327
119 145 1 116 2 1 1 0 0 3 0.919
120 145 1 117 1 1 2 1 0 1 0.945
121 145 1 118 1 1 1 1 0 2 0.745
122 145 1 119 1 1 0 1 1 0 0.875
123 145 1 120 3 3 0 1 1 0 0.979
124 145 1 121 3 3 2 1 1 2 0.984
125 145 1 122 3 3 1 1 1 1 1.197
126 145 1 123 1 1 0 1 0 2 1.242
127 145 1 124 0 1 1 0 0 2 1.625
128 145 1 125 0 0 0 1 0 3 0.858
129 145 1 126 1 1 3 1 1 3 0.886
130 145 1 127 0 0 3 1 0 1 1.054
131 145 1 128 3 3 0 1 1 0 1.075
132 145 1 129 2 2 0 1 1 0 1.059
133 145 1 130 2 2 1 1 0 2 1.029
134 145 1 131 0 1 3 0 0 0 0.732
135 145 1 132 3 2 2 0 0 1 0.35
136 145 1 133 3 0 0 0 0 2 0.348
137 145 1 134 1 1 1 1 1 1 0.475
138 145 1 135 0 1 0 0 0 2 1.345
139 145 1 136 3 3 2 1 0 1 0.703
140 145 1 137 3 3 2 1 0 0 0.833
141 145 1 138 3 2 0 0 1 0 0.974
142 145 1 139 3 3 2 1 1 2 1.027
143 145 1 140 1 1 1 1 1 1 0.789
144 145 1 141 2 2 2 1 1 2 0.529
145 145 1 142 2 2 0 1 0 2 0.919
146 145 1 143 0 0 0 1 1 0 0.481
147 145 1 144 2 0 2 0 0 1 0.663
148 145 1 145 0 1 2 0 0 0 0.547
149 145 1 146 2 2 2 1 1 2 0.428
150 145 1 147 2 2 1 1 1 1 0.5
151 145 1 148 0 0 2 1 0 0 0.363
152 146 0 0 2 3 1 0 0 2 1.423
153 145 1 149 1 1 1 1 1 1 0.425
154 146 0 1 3 3 1 1 0 2 1.04
155 145 1 150 3 0 3 0 0 1 0.93
156 146 0 2 2 2 0 1 1 0 0.383
157 145 1 151 2 0 0 0 1 0 0.859
158 146 0 3 3 1 0 0 0 2 0.77
159 145 1 152 1 1 3 1 1 3 1.477
160 146 0 4 3 3 3 1 1 3 1.026
161 145 1 153 2 2 2 1 0 0 0.887
162 146 0 5 3 3 2 1 1 2 0.494
163 145 1 154 0 1 3 0 1 3 1.65
164 146 0 6 0 1 1 0 0 2 1.101
165 145 1 155 0 0 3 1 1 3 1.518
166 145 1 156 2 2 0 1 1 0 0.864
167 145 1 157 0 0 0 1 1 0 0.777
168 145 1 158 3 2 1 0 0 3 0.916
169 145 1 159 3 0 2 0 1 2 1.549
170 145 2 160 0 0 0 1 0 1 1.015
171 145 2 161 2 2 2 1 0 1 0.798
172 145 2 162 1 2 2 0 1 2 0.668
173 145 2 163 0 0 0 1 1 0 1.531
174 145 2 164 1 1 1 1 1 1 0.908
175 145 2 165 1 2 2 0 0 1 0.707
176 145 2 166 3 3 2 1 1 2 0.948
177 145 2 167 1 1 1 1 0 3 1.108
178 145 2 168 0 1 0 0 0 3 1.384
179 145 2 169 1 1 3 1 1 3 0.834
180 145 2 170 3 3 1 1 1 1 1.051
181 145 2 171 2 2 0 1 1 0 1.053
182 145 2 172 3 2 0 0 0 1 0.815
183 145 2 173 1 1 3 1 1 3 1.167
184 145 2 174 3 0 1 0 0 2 1.516
185 145 2 175 3 3 2 1 0 3 1.424
186 145 2 176 2 2 3 1 1 3 1.4
187 145 2 177 0 0 0 1 1 0 0.974
188 145 2 178 1 1 3 1 1 3 1.059
189 145 2 179 2 2 2 1 1 2 0.932
190 145 2 180 2 3 0 0 0 2 1.387
191 145 2 181 2 2 0 1 0 3 1.06
192 145 2 182 2 2 3 1 1 3 1.034
193 145 2 183 0 0 3 1 1 3 0.732
194 145 2 184 3 3 3 1 1 3 0.841
195 145 2 185 3 3 1 1 0 0 1.028
196 145 2 186 3 1 0 0 0 1 1.659
197 145 2 187 3 3 1 1 0 3 1.195
198 145 2 188 1 1 0 1 1 0 0.859
199 145 2 189 2 2 3 1 0 1 1.236
200 145 2 190 3 3 0 1 1 0 0.786
201 145 2 191 0 0 3 1 0 1 0.894
202 145 2 192 3 3 2 1 1 2 1.114
203 145 2 193 3 3 2 1 1 2 0.938
204 145 2 194 1 1 1 1 1 1 0.817
205 145 2 195 1 2 3 0 0 1 0.699
206 145 2 196 0 0 1 1 0 0 1.101
207 145 2 197 0 0 2 1 1 2 0.833
208 145 2 198 2 1 1 0 1 1 1.084
209 145 2 199 0 1 1 0 1 1 0.349
210 145 2 200 3 3 1 1 1 1 0.744
211 145 2 201 3 3 1 1 1 1 0.453
212 145 2 202 2 3 3 0 1 3 1.116
213 145 2 203 2 2 1 1 1 1 0.861
214 145 2 204 0 0 2 1 0 1 1.189
215 145 2 205 1 1 1 1 1 1 0.949
216 145 2 206 3 0 3 0 0 1 0.746
217 145 2 207 2 2 2 1 0 3 1.484
218 145 2 208 2 3 3 0 1 3 1.442
219 145 2 209 1 2 0 0 0 2 0.854
220 145 2 210 3 3 0 1 1 0 0.834
221 145 2 211 0 2 3 0 1 3 2.253
222 145 2 212 0 0 1 1 0 2 0.98
223 145 2 213 0 0 1 1 1 1 0.956
224 145 2 214 3 3 0 1 1 0 0.625
225 145 2 215 3 3 0 1 1 0 0.339
226 145 2 216 2 2 0 1 1 0 0.543
227 145 2 217 2 2 0 1 1 0 1.107
228 145 2 218 3 3 0 1 1 0 0.676
229 145 2 219 1 1 2 1 1 2 0.996
230 145 2 220 3 0 0 0 1 0 0.873
231 145 2 221 3 3 3 1 1 3 0.977
232 145 2 222 2 2 0 1 0 2 1.35
233 145 2 223 0 0 1 1 1 1 0.864
234 145 2 224 2 2 2 1 0 1 0.794
235 145 2 225 0 0 0 1 1 0 0.6
236 145 2 226 0 0 2 1 1 2 1.594
237 145 2 227 1 1 2 1 1 2 0.904
238 145 2 228 3 3 2 1 1 2 0.608
239 145 2 229 0 0 2 1 1 2 0.61
240 145 2 230 3 2 0 0 0 1 1.731
241 145 2 231 3 3 1 1 1 1 0.848
242 145 2 232 3 3 2 1 1 2 1.322
243 145 2 233 0 2 0 0 0 1 0.723
244 145 2 234 1 1 1 1 1 1 0.836
245 145 2 235 1 1 3 1 1 3 0.892
246 145 2 236 2 2 0 1 0 2 0.9
247 145 2 237 1 2 0 0 0 2 1.087
248 145 2 238 3 3 2 1 0 3 1.475
249 145 2 239 3 0 0 0 1 0 1.049
250 145 3 240 1 1 2 1 1 2 2.066
251 145 3 241 0 1 2 0 0 3 1.183
252 145 3 242 2 0 0 0 1 0 0.88
253 145 3 243 0 1 2 0 1 2 1.209
254 145 3 244 3 3 2 1 1 2 0.39
255 145 3 245 1 1 2 1 1 2 0.703
256 145 3 246 2 2 2 1 1 2 0.622
257 145 3 247 3 3 1 1 1 1 0.863
258 145 3 248 1 2 1 0 1 1 0.649
259 145 3 249 2 2 0 1 0 1 0.57
260 145 3 250 0 0 0 1 1 0 1.186
261 145 3 251 3 3 3 1 1 3 1.071
262 145 3 252 2 2 3 1 0 0 0.689
263 145 3 253 3 2 3 0 0 1 0.564
264 145 3 254 3 3 2 1 0 1 0.54
265 145 3 255 2 2 3 1 1 3 0.772
266 145 3 256 2 0 3 0 1 3 0.673
267 145 3 257 2 2 1 1 1 1 0.481
268 145 3 258 0 1 3 0 0 1 0.152
269 145 3 259 2 1 1 0 0 0 0.99
270 145 3 260 3 3 1 1 1 1 0.832
271 145 3 261 0 2 0 0 0 3 0.794
272 145 3 262 3 0 0 0 0 1 0.778
273 145 3 263 2 2 1 1 1 1 0.97
274 145 3 264 2 2 1 1 1 1 0.832
275 145 3 265 3 3 1 1 1 1 0.65
276 145 3 266 1 2 2 0 0 1 1.051
277 145 3 267 2 2 2 1 1 2 1.362
278 145 3 268 1 1 2 1 0 1 0.809
279 145 3 269 3 3 3 1 1 3 1.127
280 145 3 270 1 2 0 0 0 3 0.743
281 145 3 271 2 2 1 1 1 1 0.84
282 145 3 272 3 3 0 1 1 0 0.594
283 145 3 273 1 0 0 0 0 1 0.629
284 145 3 274 3 1 2 0 0 1 0.697
285 145 3 275 0 2 0 0 1 0 0.588
286 145 3 276 1 1 2 1 1 2 1.088
287 145 3 277 0 0 2 1 1 2 0.896
288 145 3 278 1 1 0 1 0 2 0.568
289 147 0 0 1 1 2 1 1 2 1.47
290 145 3 279 2 2 2 1 0 1 0.479
291 147 0 1 2 2 3 1 0 1 1.457
292 145 3 280 0 1 3 0 1 3 1.322
293 147 0 2 3 3 2 1 1 2 0.721
294 145 3 281 2 2 2 1 0 1 0.882
295 147 0 3 3 3 0 1 1 0 0.457
296 145 3 282 0 0 1 1 1 1 1.183
297 147 0 4 2 2 0 1 1 0 0.632
298 145 3 283 2 2 0 1 0 1 0.731
299 147 0 5 2 2 3 1 1 3 1.29
300 145 3 284 2 2 2 1 1 2 0.957
301 147 0 6 3 3 3 1 1 3 0.5
302 145 3 285 2 2 2 1 1 2 0.834
303 147 0 7 3 2 1 0 0 2 1.306
304 145 3 286 2 2 0 1 1 0 0.732
305 147 0 8 2 2 2 1 1 2 0.735
306 145 3 287 2 2 1 1 1 1 0.873
307 147 0 9 2 2 3 1 1 3 0.556
308 145 3 288 2 2 1 1 1 1 0.627
309 147 0 10 3 3 2 1 1 2 1.432
310 145 3 289 0 0 2 1 1 2 0.821
311 147 0 11 3 2 1 0 0 3 1.188
312 145 3 290 2 2 0 1 1 0 0.559
313 145 3 291 0 1 0 0 0 3 1.234
314 145 3 292 3 3 2 1 1 2 0.881
315 147 0 12 3 2 2 0 2 -1 2.413
316 145 3 293 0 0 2 1 1 2 0.634
317 147 0 13 2 2 2 1 1 2 0.605
318 145 3 294 2 2 2 1 0 1 1.259
319 147 0 14 3 3 2 1 0 3 1.607
320 145 3 295 0 0 0 1 1 0 0.873
321 147 0 15 3 3 1 1 1 1 0.576
322 145 3 296 2 1 1 0 1 1 0.769
323 147 0 16 3 2 1 0 0 0 1.027
324 145 3 297 1 1 3 1 1 3 0.878
325 147 0 17 2 3 0 0 1 0 0.97
326 145 3 298 0 0 2 1 1 2 1.254
327 147 0 18 1 1 0 1 1 0 0.399
328 147 0 19 1 1 0 1 1 0 0.345
329 145 3 299 0 1 3 0 1 3 1.144
330 147 0 20 3 3 0 1 1 0 0.453
331 145 3 300 2 2 1 1 1 1 1.078
332 147 0 21 2 2 2 1 1 2 0.636
333 145 3 301 2 3 1 0 1 1 0.696
334 147 0 22 3 3 1 1 1 1 0.341
335 145 3 302 1 1 2 1 1 2 1.015
336 147 0 23 0 0 2 1 1 2 0.417
337 145 3 303 2 2 0 1 1 0 0.682
338 147 0 24 3 3 1 1 0 3 0.85
339 145 3 304 2 3 3 0 0 1 0.617
340 147 0 25 3 0 2 0 0 1 1.151
341 145 3 305 0 0 1 1 1 1 0.735
342 147 0 26 2 2 0 1 1 0 0.337
343 145 3 306 1 1 1 1 1 1 0.748
344 147 0 27 1 1 3 1 1 3 0.788
345 145 3 307 2 2 2 1 0 0 0.68
346 147 0 28 1 1 1 1 1 1 0.44
347 145 3 308 2 0 1 0 1 1 0.731
348 147 0 29 2 2 0 1 1 0 0.464
349 145 3 309 1 1 3 1 1 3 1.113
350 147 0 30 3 0 2 0 0 0 1.319
351 145 3 310 0 0 3 1 1 3 0.713
352 147 0 31 3 3 2 1 1 2 0.371
353 147 0 32 3 3 0 1 1 0 0.286
354 145 3 311 2 2 3 1 1 3 0.647
355 147 0 33 2 2 0 1 1 0 0.267
356 145 3 312 2 1 0 0 1 0 0.615
357 147 0 34 1 1 1 1 1 1 0.346
358 145 3 313 0 0 0 1 1 0 0.505
359 147 0 35 3 0 2 0 1 2 0.437
360 145 3 314 0 0 2 1 0 0 0.671
361 147 0 36 0 2 1 0 1 1 0.269
362 147 0 37 2 0 0 0 1 0 0.267
363 147 0 38 1 0 1 0 1 1 0.546
364 147 0 39 1 1 0 1 1 0 0.327
365 145 3 315 1 1 1 1 0 3 6.883
366 147 0 40 3 2 0 0 0 2 0.659
367 145 3 316 0 0 2 1 1 2 2.232
368 147 0 41 3 3 1 1 1 1 0.382
369 147 0 42 3 3 2 1 1 2 0.4
370 145 3 317 1 1 0 1 1 0 1.232
371 147 0 43 0 0 0 1 1 0 0.266
372 145 3 318 2 2 0 1 1 0 0.971
373 147 0 44 1 2 1 0 1 1 0.304
374 145 3 319 1 1 1 1 1 1 1.009
375 147 0 45 0 0 2 1 1 2 0.445
376 147 0 46 3 3 1 1 0 3 0.773
377 147 0 47 0 0 1 1 1 1 0.269
378 147 0 48 1 1 3 1 1 3 0.363
379 147 0 49 1 1 0 1 1 0 0.438
380 147 0 50 0 0 0 1 1 0 0.334
381 147 0 51 3 0 3 0 1 3 0.649
382 147 0 52 0 0 3 1 1 3 0.306
383 147 0 53 3 3 0 1 1 0 0.351
384 147 0 54 0 1 3 0 0 2 0.834
385 147 0 55 1 1 1 1 1 1 0.32
386 147 0 56 0 0 1 1 1 1 0.276
387 147 0 57 3 3 1 1 1 1 0.474
388 147 0 58 1 2 3 0 0 2 0.848
389 147 0 59 2 2 3 1 1 3 0.358
390 147 0 60 0 0 2 1 1 2 0.345
391 147 0 61 1 2 2 0 1 2 0.693
392 147 0 62 1 1 0 1 1 0 0.396
393 147 0 63 2 2 3 1 1 3 0.285
394 147 0 64 2 1 3 0 1 3 0.403
395 147 0 65 0 0 3 1 1 3 0.356
396 147 0 66 1 2 3 0 1 3 0.271
397 147 0 67 1 2 2 0 0 3 0.334
398 147 0 68 3 3 2 1 0 3 0.974
399 147 0 69 1 1 0 1 1 0 0.366
400 147 0 70 1 1 0 1 0 3 0.849
401 147 0 71 0 0 0 1 1 0 0.342
402 147 0 72 1 1 2 1 1 2 0.298
403 147 0 73 3 3 0 1 0 3 0.678
404 147 0 74 0 1 2 0 1 2 1.17
405 147 0 75 3 3 1 1 1 1 2.928
406 147 0 76 1 1 3 1 1 3 0.414
407 147 0 77 2 2 0 1 1 0 0.392
408 147 0 78 2 2 2 1 1 2 0.442
409 147 0 79 1 1 3 1 1 3 0.378
410 147 1 80 3 1 2 0 1 2 0.45
411 147 1 81 0 0 3 1 1 3 0.361
412 147 1 82 3 3 0 1 1 0 0.428
413 147 1 83 1 2 0 0 1 0 0.341
414 147 1 84 0 0 0 1 1 0 0.265
415 147 1 85 2 2 3 1 1 3 0.367
416 147 1 86 2 2 3 1 1 3 0.146
417 147 1 87 1 1 2 1 1 2 0.285
418 147 1 88 1 1 2 1 1 2 0.378
419 147 1 89 2 2 0 1 1 0 0.293
420 147 1 90 1 1 3 1 1 3 0.306
421 147 1 91 1 1 3 1 1 3 0.191
422 147 1 92 0 0 2 1 1 2 0.384
423 147 1 93 0 1 1 0 1 1 1.914
424 147 1 94 1 1 2 1 1 2 0.437
425 147 1 95 3 2 2 0 1 2 0.445
426 147 1 96 3 3 3 1 1 3 0.469
427 147 1 97 2 1 0 0 0 2 0.804
428 147 1 98 2 2 1 1 1 1 0.466
429 147 1 99 3 2 3 0 1 3 0.578
430 147 1 100 1 2 0 0 1 0 0.509
431 147 1 101 0 1 1 0 1 1 0.347
432 147 1 102 1 1 0 1 1 0 0.462
433 147 1 103 3 3 0 1 1 0 0.302
434 147 1 104 3 3 1 1 1 1 0.259
435 147 1 105 2 2 2 1 1 2 0.385
436 147 1 106 1 1 3 1 1 3 0.275
437 147 1 107 0 2 3 0 1 3 0.889
438 147 1 108 3 3 0 1 1 0 0.353
439 147 1 109 2 2 0 1 0 1 0.7
440 147 1 110 2 2 2 1 1 2 0.358
441 147 1 111 1 1 3 1 1 3 0.537
442 147 1 112 0 0 3 1 1 3 0.294
443 147 1 113 1 1 2 1 1 2 0.491
444 147 1 114 0 0 2 1 1 2 0.393
445 147 1 115 2 2 2 1 1 2 0.331
446 147 1 116 0 2 0 0 0 1 0.935
447 147 1 117 1 1 1 1 1 1 1.225
448 147 1 118 2 1 3 0 0 2 1.717
449 147 1 119 2 2 1 1 1 1 0.435
450 147 1 120 2 2 2 1 1 2 0.387
451 147 1 121 2 2 1 1 1 1 0.733
452 147 1 122 2 2 2 1 1 2 0.378
453 147 1 123 3 2 2 0 1 2 0.5
454 147 1 124 0 0 0 1 1 0 0.45
455 147 1 125 1 0 2 0 1 2 0.362
456 147 1 126 3 0 1 0 1 1 0.341
457 147 1 127 3 0 2 0 1 2 0.313
458 147 1 128 1 1 1 1 1 1 0.422
459 147 1 129 0 0 2 1 1 2 0.518
460 147 1 130 2 1 0 0 1 0 0.307
461 147 1 131 1 1 1 1 1 1 0.296
462 147 1 132 3 2 2 0 1 2 0.382
463 147 1 133 2 2 0 1 1 0 0.264
464 147 1 134 0 0 1 1 1 1 0.271
465 147 1 135 3 3 1 1 1 1 0.293
466 147 1 136 3 3 0 1 1 0 0.202
467 147 1 137 2 3 0 0 1 0 0.322
468 147 1 138 3 3 0 1 1 0 0.287
469 147 1 139 1 2 2 0 1 2 1.604
470 147 1 140 3 3 2 1 1 2 0.323
471 147 1 141 2 2 3 1 0 0 0.215
472 147 1 142 1 1 3 1 0 2 0.915
473 147 1 143 1 1 1 1 1 1 0.269
474 147 1 144 2 2 2 1 1 2 0.443
475 147 1 145 2 2 2 1 1 2 0.419
476 147 1 146 0 1 0 0 1 0 0.348
477 147 1 147 2 2 3 1 1 3 0.343
478 147 1 148 3 3 1 1 1 1 0.347
479 147 1 149 1 1 3 1 1 3 0.399
480 147 1 150 1 1 2 1 1 2 0.368
481 147 1 151 2 2 0 1 1 0 0.403
482 147 1 152 0 0 3 1 1 3 0.389
483 147 1 153 3 0 2 0 0 0 0.91
484 147 1 154 0 0 0 1 1 0 0.313
485 147 1 155 2 1 0 0 1 0 0.358
486 147 1 156 1 1 0 1 1 0 0.401
487 147 1 157 3 3 2 1 0 0 1.339
488 147 1 158 3 3 0 1 1 0 0.342
489 147 1 159 2 2 3 1 1 3 0.386
490 147 2 160 0 1 0 0 1 0 1.134
491 147 2 161 2 0 0 0 1 0 0.741
492 147 2 162 3 3 1 1 1 1 0.402
493 147 2 163 1 1 2 1 1 2 0.411
494 147 2 164 1 2 0 0 1 0 0.293
495 147 2 165 0 0 0 1 1 0 0.25
496 147 2 166 2 3 2 0 1 2 0.545
497 147 2 167 3 3 0 1 0 2 1.238
498 147 2 168 2 2 3 1 1 3 0.397
499 147 2 169 1 1 0 1 1 0 0.278
500 147 2 170 1 1 3 1 1 3 0.292
501 147 2 171 0 0 2 1 1 2 0.464
502 147 2 172 1 2 0 0 1 0 0.335
503 147 2 173 3 3 2 1 1 2 0.451
504 147 2 174 0 0 2 1 1 2 0.411
505 147 2 175 2 2 0 1 1 0 0.348
506 147 2 176 1 1 2 1 1 2 0.464
507 147 2 177 3 3 3 1 1 3 0.392
508 147 2 178 2 1 2 0 1 2 0.497
509 147 2 179 3 3 2 1 1 2 0.535
510 147 2 180 2 2 0 1 1 0 0.299
511 147 2 181 0 0 0 1 1 0 0.329
512 147 2 182 0 0 3 1 1 3 0.477
513 147 2 183 1 1 0 1 1 0 0.3
514 147 2 184 3 3 0 1 1 0 0.297
515 147 2 185 2 1 1 0 1 1 1.126
516 147 2 186 0 1 0 0 1 0 0.494
517 147 2 187 0 0 1 1 1 1 0.3
518 147 2 188 0 0 1 1 1 1 0.401
519 147 2 189 1 1 0 1 1 0 0.203
520 147 2 190 1 1 3 1 1 3 0.291
521 147 2 191 1 1 3 1 1 3 0.296
522 147 2 192 0 0 3 1 1 3 0.318
523 147 2 193 0 0 0 1 1 0 0.25
524 147 2 194 2 2 0 1 1 0 0.273
525 147 2 195 3 3 3 1 1 3 0.439
526 147 2 196 1 1 0 1 1 0 0.327
527 147 2 197 0 1 3 0 1 3 0.339
528 147 2 198 1 1 0 1 1 0 0.335
529 147 2 199 0 2 0 0 0 3 1.691
530 147 2 200 1 0 3 0 0 0 1.106
531 147 2 201 1 1 3 1 1 3 0.285
532 147 2 202 2 2 1 1 1 1 0.459
533 147 2 203 2 3 1 0 0 2 0.898
534 147 2 204 2 3 2 0 1 2 0.341
535 147 2 205 3 3 2 1 1 2 0.329
536 147 2 206 3 3 3 1 1 3 0.277
537 147 2 207 1 1 1 1 1 1 0.307
538 147 2 208 0 0 2 1 1 2 0.296
539 147 2 209 2 2 3 1 0 2 0.236
540 147 2 210 3 3 2 1 1 2 0.799
541 147 2 211 0 2 1 0 0 3 1.066
542 147 2 212 2 2 0 1 1 0 0.271
543 147 2 213 2 1 1 0 1 1 0.357
544 147 2 214 2 3 0 0 1 0 0.32
545 147 2 215 1 0 2 0 1 2 0.82
546 147 2 216 3 0 0 0 1 0 0.278
547 147 2 217 3 2 0 0 0 2 0.764
548 147 2 218 3 3 1 1 1 1 0.348
549 147 2 219 3 2 1 0 1 1 0.487
550 147 2 220 1 1 3 1 1 3 0.494
551 147 2 221 1 2 2 0 1 2 0.396
552 147 2 222 2 2 0 1 1 0 0.269
553 147 2 223 0 0 0 1 1 0 0.251
554 147 2 224 2 2 2 1 1 2 0.33
555 147 2 225 0 0 3 1 1 3 0.358
556 147 2 226 2 2 3 1 1 3 0.265
557 147 2 227 2 2 3 1 1 3 0.279
558 147 2 228 2 2 0 1 1 0 0.237
559 147 2 229 2 1 3 0 1 3 0.292
560 147 2 230 1 2 3 0 1 3 0.394
561 147 2 231 3 0 3 0 1 3 0.372
562 147 2 232 1 1 3 1 1 3 0.302
563 147 2 233 1 0 0 0 1 0 0.268
564 147 2 234 2 0 1 0 1 1 0.314
565 147 2 235 3 3 0 1 1 0 0.295
566 147 2 236 2 3 1 0 1 1 0.3
567 147 2 237 3 1 1 0 1 1 0.298
568 147 2 238 3 3 2 1 1 2 0.511
569 147 2 239 1 2 2 0 1 2 0.301
570 147 3 240 2 2 2 1 1 2 0.341
571 147 3 241 0 0 3 1 1 3 0.369
572 147 3 242 3 3 2 1 1 2 0.299
573 147 3 243 3 3 0 1 1 0 0.305
574 147 3 244 2 2 0 1 1 0 0.261
575 147 3 245 3 3 3 1 1 3 0.372
576 147 3 246 0 0 0 1 1 0 0.374
577 147 3 247 2 2 2 1 1 2 0.321
578 147 3 248 1 2 0 0 1 0 0.301
579 147 3 249 0 0 3 1 1 3 0.426
580 147 3 250 3 3 2 1 1 2 0.395
581 147 3 251 2 2 3 1 1 3 0.316
582 147 3 252 0 0 0 1 1 0 0.529
583 147 3 253 0 1 2 0 1 2 0.294
584 147 3 254 0 2 2 0 1 2 0.283
585 147 3 255 2 2 0 1 1 0 0.248
586 147 3 256 0 1 0 0 1 0 0.264
587 147 3 257 3 3 1 1 1 1 0.366
588 147 3 258 3 3 2 1 1 2 0.289
589 147 3 259 1 1 3 1 1 3 0.215
590 147 3 260 0 0 1 1 1 1 0.375
591 147 3 261 3 3 0 1 1 0 0.241
592 147 3 262 2 2 2 1 1 2 0.273
593 147 3 263 2 1 2 0 1 2 1.223
594 147 3 264 2 1 1 0 1 1 0.939
595 147 3 265 2 2 1 1 1 1 0.401
596 147 3 266 2 0 1 0 1 1 0.986
597 147 3 267 0 0 1 1 1 1 0.367
598 147 3 268 1 0 0 0 1 0 0.273
599 147 3 269 2 1 0 0 0 2 0.655
600 147 3 270 0 0 3 1 1 3 0.371
601 147 3 271 0 0 3 1 1 3 0.309
602 147 3 272 3 1 1 0 1 1 0.346
603 147 3 273 1 1 0 1 1 0 0.31
604 147 3 274 1 1 3 1 1 3 0.298
605 147 3 275 1 2 0 0 1 0 0.264
606 147 3 276 2 2 0 1 1 0 0.311
607 147 3 277 3 3 3 1 1 3 0.339
608 147 3 278 1 1 0 1 1 0 0.319
609 147 3 279 2 2 3 1 1 3 0.307
610 147 3 280 0 0 0 1 1 0 0.216
611 147 3 281 1 2 2 0 0 3 0.36
612 147 3 282 1 1 3 1 1 3 0.39
613 147 3 283 2 2 3 1 1 3 0.336
614 147 3 284 0 0 1 1 1 1 0.324
615 147 3 285 3 3 3 1 1 3 0.376
616 147 3 286 1 1 0 1 1 0 0.292
617 147 3 287 0 1 0 0 0 1 1.217
618 147 3 288 3 1 0 0 1 0 0.265
619 147 3 289 0 0 3 1 1 3 0.352
620 147 3 290 3 3 2 1 1 2 0.443
621 147 3 291 1 0 0 0 1 0 0.259
622 147 3 292 1 1 1 1 1 1 0.313
623 147 3 293 3 3 2 1 1 2 0.342
624 147 3 294 2 2 2 1 1 2 0.25
625 147 3 295 1 1 3 1 1 3 0.264
626 147 3 296 0 0 2 1 1 2 0.327
627 147 3 297 0 0 1 1 1 1 0.331
628 147 3 298 2 2 3 1 1 3 0.343
629 147 3 299 3 3 3 1 1 3 0.235
630 147 3 300 3 3 1 1 1 1 0.578
631 147 3 301 3 2 2 0 1 2 0.437
632 147 3 302 3 2 3 0 1 3 0.309
633 147 3 303 0 0 3 1 1 3 0.33
634 147 3 304 0 1 1 0 1 1 0.478
635 147 3 305 0 0 1 1 1 1 0.245
636 147 3 306 0 1 2 0 1 2 0.509
637 147 3 307 3 3 0 1 0 2 0.682
638 147 3 308 0 0 2 1 1 2 0.446
639 147 3 309 2 2 2 1 1 2 0.318
640 147 3 310 1 2 3 0 0 1 0.77
641 147 3 311 2 2 1 1 1 1 0.314
642 147 3 312 1 1 3 1 1 3 0.269
643 147 3 313 2 0 2 0 1 2 0.419
644 147 3 314 0 0 0 1 1 0 0.236
645 147 3 315 1 2 2 0 1 2 1.155
646 147 3 316 3 3 3 1 1 3 0.361
647 147 3 317 3 2 3 0 0 1 1.316
648 147 3 318 1 1 3 1 1 3 0.345
649 147 3 319 0 2 3 0 0 1 0.724
650 150 0 0 3 3 1 1 0 2 1.151
651 150 0 1 1 1 1 1 1 1 1.071
652 150 0 2 2 2 0 1 1 0 0.655
653 150 0 3 1 1 2 1 1 2 0.766
654 150 0 4 3 3 0 1 1 0 1.289
655 150 0 5 2 0 2 0 0 0 1.234
656 150 0 6 0 1 0 0 0 1 1.296
657 150 0 7 1 1 0 1 0 1 1.564
658 150 0 8 0 0 0 1 1 0 1.438
659 150 0 9 0 1 3 0 1 3 1.217
660 150 0 10 1 1 1 1 0 0 0.892
661 150 0 11 0 1 3 0 0 0 0.854
662 150 0 12 1 1 0 1 1 0 0.418
663 150 0 13 1 1 0 1 1 0 0.329
664 150 0 14 0 0 2 1 1 2 0.708
665 150 0 15 3 3 0 1 1 0 0.481
666 150 0 16 1 1 3 1 1 3 0.806
667 150 0 17 1 2 2 0 0 0 0.88
668 150 0 18 1 1 3 1 1 3 0.874
669 150 0 19 0 1 0 0 1 0 0.56
670 150 0 20 2 2 0 1 1 0 0.355
671 150 0 21 0 0 3 1 1 3 0.765
672 150 0 22 1 1 1 1 0 3 0.807
673 150 0 23 3 3 3 1 1 3 0.772
674 150 0 24 2 2 3 1 1 3 0.703
675 150 0 25 3 3 2 1 1 2 0.892
676 150 0 26 3 2 3 0 0 1 0.994
677 150 0 27 2 2 1 1 1 1 0.679
678 150 0 28 0 1 3 0 0 0 1.061
679 150 0 29 2 2 0 1 1 0 0.441
680 150 0 30 2 2 1 1 1 1 0.687
681 150 0 31 3 1 0 0 0 1 0.717
682 150 0 32 2 0 2 0 0 0 0.717
683 150 0 33 2 0 0 0 1 0 0.556
684 150 0 34 2 0 3 0 1 3 1.167
685 150 0 35 2 2 2 1 1 2 0.844
686 150 0 36 1 1 1 1 1 1 0.755
687 150 0 37 0 0 2 1 0 3 0.846
688 150 0 38 2 1 0 0 1 0 1.306
689 150 0 39 3 3 2 1 1 2 0.722
690 150 0 40 2 3 0 0 0 1 0.734
691 150 0 41 2 0 3 0 0 0 0.621
692 150 0 42 3 1 3 0 0 2 1.137
693 150 0 43 0 0 1 1 1 1 0.851
694 150 0 44 0 0 2 1 1 2 0.857
695 150 0 45 1 1 2 1 1 2 0.736
696 150 0 46 3 3 0 1 1 0 0.828
697 150 0 47 2 3 0 0 0 1 0.79
698 150 0 48 2 0 3 0 0 0 0.947
699 150 0 49 0 0 3 1 1 3 1.098
700 150 0 50 0 2 3 0 1 3 1.257
701 150 0 51 2 3 0 0 1 0 1.267
702 150 0 52 1 1 1 1 1 1 0.763
703 150 0 53 1 2 0 0 1 0 0.741
704 150 0 54 0 1 1 0 0 0 0.898
705 150 0 55 3 3 2 1 1 2 0.715
706 150 0 56 2 2 0 1 1 0 0.759
707 150 0 57 2 2 2 1 1 2 0.915
708 150 0 58 1 1 1 1 1 1 0.952
709 150 0 59 0 0 0 1 1 0 0.701
710 150 0 60 1 1 3 1 0 2 0.921
711 150 0 61 2 0 2 0 0 0 0.513
712 150 0 62 2 2 2 1 1 2 0.649
713 150 0 63 1 1 3 1 0 0 0.809
714 150 0 64 1 1 2 1 1 2 1.045
715 150 0 65 2 2 3 1 1 3 0.662
716 150 0 66 0 0 3 1 1 3 0.849
717 150 0 67 2 2 2 1 1 2 0.649
718 150 0 68 3 3 3 1 0 2 0.536
719 150 0 69 0 0 3 1 1 3 0.894
720 150 0 70 3 0 1 0 0 2 0.661
721 150 0 71 0 0 2 1 1 2 0.615
722 150 0 72 3 1 2 0 0 1 0.679
723 150 0 73 3 3 1 1 1 1 0.536
724 150 0 74 3 3 1 1 1 1 0.555
725 150 0 75 2 2 1 1 1 1 0.317
726 150 0 76 2 2 1 1 1 1 0.617
727 150 0 77 2 2 0 1 1 0 0.569
728 150 0 78 2 2 0 1 1 0 0.442
729 150 0 79 0 0 0 1 1 0 0.289
730 150 1 80 0 0 1 1 1 1 0.436
731 150 1 81 1 2 2 0 0 1 0.554
732 150 1 82 2 2 1 1 1 1 0.368
733 150 1 83 0 0 0 1 1 0 0.217
734 150 1 84 2 3 2 0 0 1 0.648
735 150 1 85 0 0 0 1 1 0 0.154
736 150 1 86 1 1 3 1 0 2 0.506
737 150 1 87 1 2 1 0 1 1 0.85
738 150 1 88 1 1 0 1 1 0 0.443
739 150 1 89 2 1 1 0 0 2 0.865
740 150 1 90 0 1 3 0 0 0 0.763
741 150 1 91 1 2 2 0 0 0 0.537
742 150 1 92 3 3 1 1 1 1 0.416
743 150 1 93 0 0 0 1 1 0 0.487
744 150 1 94 0 1 1 0 0 2 0.892
745 150 1 95 3 1 1 0 1 1 0.949
746 150 1 96 1 2 1 0 1 1 0.474
747 150 1 97 2 2 3 1 1 3 0.991
748 150 1 98 1 1 1 1 1 1 0.993
749 150 1 99 2 0 0 0 1 0 0.547
750 150 1 100 0 1 2 0 0 0 0.439
751 150 1 101 0 0 3 1 1 3 0.929
752 150 1 102 3 3 3 1 1 3 0.418
753 150 1 103 3 3 1 1 1 1 0.473
754 150 1 104 1 1 2 1 1 2 0.751
755 150 1 105 0 0 0 1 1 0 0.315
756 150 1 106 1 2 1 0 0 0 0.582
757 150 1 107 3 0 2 0 1 2 0.923
758 150 1 108 0 0 0 1 1 0 0.303
759 150 1 109 1 1 0 1 1 0 0.475
760 150 1 110 0 1 1 0 0 2 1.328
761 150 1 111 3 3 1 1 1 1 0.475
762 150 1 112 2 2 3 1 1 3 0.688
763 150 1 113 1 2 1 0 0 0 0.478
764 150 1 114 0 0 2 1 1 2 0.791
765 150 1 115 2 0 3 0 1 3 1.025
766 150 1 116 1 0 1 0 1 1 1.011
767 150 1 117 2 0 0 0 1 0 0.502
768 150 1 118 3 3 0 1 1 0 0.267
769 150 1 119 3 3 3 1 1 3 0.775
770 150 1 120 2 2 3 1 1 3 0.61
771 150 1 121 0 0 0 1 1 0 0.21
772 150 1 122 3 3 3 1 1 3 0.689
773 150 1 123 1 2 2 0 0 1 0.591
774 150 1 124 3 0 0 0 1 0 0.684
775 150 1 125 0 0 0 1 1 0 0.262
776 150 1 126 0 0 1 1 0 0 0.26
777 150 1 127 3 3 3 1 1 3 0.612
778 150 1 128 2 2 0 1 1 0 0.467
779 150 1 129 1 1 0 1 1 0 0.408
780 150 1 130 0 0 2 1 0 1 0.688
781 150 1 131 3 3 2 1 1 2 1.185
782 150 1 132 3 3 3 1 0 2 1.389
783 150 1 133 1 1 1 1 1 1 0.502
784 150 1 134 2 2 1 1 1 1 0.522
785 150 1 135 0 2 3 0 0 0 0.638
786 150 1 136 1 1 2 1 1 2 0.608
787 150 1 137 0 1 3 0 0 0 0.737
788 150 1 138 1 1 2 1 1 2 1.215
789 150 1 139 2 3 2 0 0 0 0.714
790 150 1 140 3 0 2 0 1 2 0.97
791 150 1 141 2 2 3 1 1 3 0.877
792 150 1 142 1 1 3 1 1 3 0.915
793 150 1 143 3 3 2 1 1 2 0.713
794 150 1 144 0 0 1 1 1 1 0.501
795 150 1 145 3 2 2 0 0 3 1.113
796 150 1 146 1 0 1 0 1 1 0.586
797 150 1 147 0 1 1 0 1 1 0.892
798 150 1 148 2 2 0 1 1 0 0.435
799 150 1 149 3 2 1 0 0 0 0.697
800 150 1 150 1 0 2 0 1 2 0.809
801 150 1 151 0 0 3 1 1 3 0.707
802 150 1 152 1 1 0 1 1 0 0.272
803 150 1 153 1 1 0 1 1 0 0.445
804 150 1 154 0 0 1 1 0 0 0.514
805 150 1 155 2 3 3 0 0 1 0.377
806 150 1 156 3 3 0 1 0 2 0.87
807 150 1 157 2 2 2 1 1 2 0.688
808 150 1 158 3 3 1 1 1 1 0.43
809 150 1 159 2 0 1 0 1 1 0.709
810 150 2 160 2 2 3 1 2 -1 0.684
811 150 2 161 2 2 0 1 1 0 0.639
812 150 2 162 1 1 3 1 1 3 0.815
813 150 2 163 0 0 3 1 1 3 0.791
814 150 2 164 0 0 2 1 1 2 0.496
815 150 2 165 3 3 2 1 1 2 0.821
816 150 2 166 2 2 0 1 1 0 0.399
817 150 2 167 3 3 0 1 1 0 0.406
818 150 2 168 1 1 1 1 1 1 0.429
819 150 2 169 2 2 0 1 1 0 0.325
820 150 2 170 1 1 1 1 1 1 0.288
821 150 2 171 2 1 2 0 0 1 0.62
822 150 2 172 2 2 0 1 1 0 0.367
823 150 2 173 0 0 3 1 1 3 0.808
824 150 2 174 3 3 1 1 1 1 0.434
825 150 2 175 3 2 2 0 0 1 0.505
826 150 2 176 1 2 1 0 0 0 0.752
827 150 2 177 2 2 0 1 1 0 0.351
828 150 2 178 3 1 3 0 0 0 0.904
829 150 2 179 1 2 1 0 0 2 0.93
830 150 2 180 2 2 2 1 1 2 0.635
831 150 2 181 1 1 2 1 1 2 0.491
832 150 2 182 1 1 0 1 0 1 0.75
833 150 2 183 0 0 3 1 1 3 0.958
834 150 2 184 2 2 0 1 0 3 0.705
835 150 2 185 3 3 1 1 0 2 0.529
836 150 2 186 1 1 2 1 1 2 0.873
837 150 2 187 1 1 2 1 1 2 0.496
838 150 2 188 2 3 2 0 0 1 0.789
839 150 2 189 3 3 2 1 1 2 0.562
840 150 2 190 0 0 3 1 1 3 0.755
841 150 2 191 2 2 0 1 1 0 0.623
842 150 2 192 1 1 1 1 1 1 0.383
843 150 2 193 0 0 2 1 1 2 0.791
844 150 2 194 3 3 2 1 1 2 0.992
845 150 2 195 0 0 3 1 0 0 0.516
846 150 2 196 0 2 1 0 0 0 1.116
847 150 2 197 2 2 2 1 1 2 0.909
848 150 2 198 0 0 3 1 1 3 1.026
849 150 2 199 2 2 2 1 1 2 0.788
850 150 2 200 3 3 2 1 1 2 0.671
851 150 2 201 0 0 0 1 1 0 0.381
852 150 2 202 0 0 2 1 1 2 0.901
853 150 2 203 3 0 2 0 0 0 0.57
854 150 2 204 3 3 2 1 1 2 0.64
855 150 2 205 0 0 2 1 1 2 0.592
856 150 2 206 2 2 2 1 1 2 0.433
857 150 2 207 2 2 1 1 1 1 0.519
858 150 2 208 2 2 0 1 1 0 0.411
859 150 2 209 1 1 3 1 1 3 0.467
860 150 2 210 1 0 1 0 1 1 0.505
861 150 2 211 2 0 0 0 0 1 0.764
862 150 2 212 2 2 3 1 1 3 0.811
863 150 2 213 3 3 3 1 1 3 0.597
864 150 2 214 0 1 2 0 0 1 1.222
865 150 2 215 2 2 0 1 1 0 0.549
866 150 2 216 3 3 1 1 1 1 0.44
867 150 2 217 0 0 3 1 1 3 0.623
868 150 2 218 0 0 2 1 1 2 1.295
869 150 2 219 3 3 2 1 1 2 0.967
870 150 2 220 2 2 1 1 1 1 0.427
871 150 2 221 1 2 0 0 0 1 0.738
872 150 2 222 0 0 2 1 1 2 0.882
873 150 2 223 1 1 1 1 1 1 0.472
874 150 2 224 0 0 0 1 1 0 1.662
875 150 2 225 1 2 1 0 1 1 0.745
876 150 2 226 2 2 2 1 1 2 0.421
877 150 2 227 3 3 1 1 1 1 0.605
878 150 2 228 3 3 3 1 1 3 0.685
879 150 2 229 2 2 1 1 1 1 0.459
880 150 2 230 2 2 1 1 1 1 0.444
881 150 2 231 3 3 0 1 1 0 0.355
882 150 2 232 0 0 3 1 1 3 0.78
883 150 2 233 2 2 2 1 1 2 0.583
884 150 2 234 0 2 0 0 0 2 1.032
885 150 2 235 0 0 0 1 1 0 0.541
886 150 2 236 3 3 0 1 1 0 0.4
887 150 2 237 0 0 0 1 1 0 0.393
888 150 2 238 3 3 0 1 1 0 0.369
889 150 2 239 3 2 0 0 1 0 0.379
890 150 3 240 0 0 2 1 1 2 0.601
891 150 3 241 3 1 0 0 1 0 0.678
892 150 3 242 0 1 1 0 1 1 0.82
893 150 3 243 2 2 2 1 1 2 0.759
894 150 3 244 3 3 0 1 1 0 0.53
895 150 3 245 1 0 2 0 0 1 0.566
896 150 3 246 0 0 2 1 1 2 1.02
897 150 3 247 0 0 2 1 1 2 0.318
898 150 3 248 1 0 3 0 0 0 0.874
899 150 3 249 0 2 3 0 0 2 0.581
900 150 3 250 2 2 0 1 1 0 0.442
901 150 3 251 0 2 3 0 1 3 0.657
902 150 3 252 3 2 2 0 1 2 0.864
903 150 3 253 2 2 3 1 1 3 0.567
904 150 3 254 2 2 3 1 1 3 0.601
905 150 3 255 1 1 0 1 1 0 0.441
906 150 3 256 2 3 3 0 1 3 0.672
907 150 3 257 0 0 0 1 1 0 0.318
908 150 3 258 2 2 1 1 1 1 0.361
909 150 3 259 1 0 0 0 1 0 0.53
910 150 3 260 3 3 1 1 1 1 0.342
911 150 3 261 0 0 3 1 2 -1 1.488
912 150 3 262 0 1 1 0 1 1 1.154
913 150 3 263 3 3 1 1 1 1 0.511
914 150 3 264 2 3 3 0 0 0 0.964
915 150 3 265 2 2 3 1 1 3 0.555
916 150 3 266 2 2 2 1 1 2 0.701
917 150 3 267 1 1 1 1 1 1 0.474
918 150 3 268 1 2 1 0 0 0 0.688
919 150 3 269 3 2 2 0 0 1 0.561
920 150 3 270 2 2 1 1 1 1 0.519
921 150 3 271 0 0 3 1 0 0 0.907
922 150 3 272 3 3 2 1 1 2 0.853
923 150 3 273 1 1 0 1 0 1 0.541
924 150 3 274 3 3 2 1 1 2 0.995
925 150 3 275 1 1 0 1 1 0 0.518
926 150 3 276 2 2 2 1 1 2 0.714
927 150 3 277 3 0 2 0 0 0 0.615
928 150 3 278 2 2 0 1 1 0 0.459
929 150 3 279 2 0 1 0 1 1 0.529
930 150 3 280 1 1 0 1 1 0 0.484
931 150 3 281 1 0 2 0 1 2 0.793
932 150 3 282 1 1 0 1 1 0 0.532
933 150 3 283 0 2 3 0 1 3 0.999
934 150 3 284 1 1 0 1 1 0 0.297
935 150 3 285 1 1 3 1 1 3 0.773
936 150 3 286 2 2 2 1 0 0 0.64
937 150 3 287 2 2 2 1 1 2 0.77
938 150 3 288 1 1 0 1 1 0 0.444
939 150 3 289 0 0 0 1 1 0 0.531
940 150 3 290 3 3 1 1 1 1 0.903
941 150 3 291 3 3 0 1 1 0 0.509
942 150 3 292 0 0 2 1 1 2 0.752
943 150 3 293 0 0 0 1 1 0 0.411
944 150 3 294 2 2 3 1 1 3 0.915
945 150 3 295 0 2 0 0 1 0 0.441
946 150 3 296 2 0 0 0 1 0 1.31
947 150 3 297 3 3 0 1 1 0 0.389
948 150 3 298 3 3 2 1 1 2 0.974
949 150 3 299 2 2 3 1 0 0 0.513
950 150 3 300 3 3 3 1 0 1 0.792
951 150 3 301 1 1 0 1 1 0 0.373
952 150 3 302 1 0 3 0 1 3 0.893
953 150 3 303 3 3 3 1 0 2 0.435
954 150 3 304 1 0 3 0 1 3 0.749
955 150 3 305 3 3 2 1 1 2 0.84
956 150 3 306 2 1 3 0 1 3 0.992
957 150 3 307 3 3 3 1 1 3 0.803
958 150 3 308 2 2 1 1 1 1 0.829
959 150 3 309 3 3 2 1 1 2 0.758
960 150 3 310 3 3 1 1 0 2 0.641
961 150 3 311 0 1 1 0 0 0 0.709
962 150 3 312 1 1 1 1 1 1 0.405
963 150 3 313 0 1 1 0 1 1 0.557
964 150 3 314 1 1 0 1 1 0 0.432
965 150 3 315 0 0 2 1 1 2 0.695
966 150 3 316 1 2 2 0 1 2 1.381
967 150 3 317 1 1 2 1 1 2 0.394
968 150 3 318 2 2 0 1 1 0 0.418
969 150 3 319 3 3 1 1 1 1 0.474
970 153 0 0 2 2 1 1 1 1 0.816
971 153 0 1 1 1 0 1 1 0 0.651
972 153 0 2 3 3 3 1 1 3 0.933
973 153 0 3 0 0 2 1 1 2 0.732
974 153 0 4 0 2 0 0 1 0 0.609
975 153 0 5 0 0 1 1 1 1 0.684
976 153 0 6 2 2 3 1 1 3 0.756
977 153 0 7 2 2 0 1 1 0 0.841
978 153 0 8 0 0 0 1 1 0 0.46
979 153 0 9 0 1 3 0 0 0 2.044
980 153 0 10 1 1 2 1 1 2 1.182
981 153 0 11 1 1 0 1 1 0 0.435
982 153 0 12 1 2 2 0 1 2 0.684
983 153 0 13 1 2 3 0 1 3 0.78
984 153 0 14 1 1 2 1 1 2 0.817
985 153 0 15 0 0 3 1 1 3 1.122
986 153 0 16 2 2 0 1 1 0 0.898
987 153 0 17 3 0 3 0 1 3 0.69
988 153 0 18 2 2 0 1 1 0 0.642
989 153 0 19 1 1 1 1 0 3 1.427
990 153 0 20 1 2 2 0 1 2 0.82
991 153 0 21 2 2 2 1 1 2 1.391
992 153 0 22 2 1 3 0 1 3 0.982
993 153 0 23 0 0 2 1 1 2 0.731
994 153 0 24 0 1 3 0 1 3 1.418
995 153 0 25 2 3 2 0 1 2 1.055
996 153 0 26 3 3 1 1 1 1 0.818
997 153 0 27 1 2 3 0 1 3 0.717
998 153 0 28 3 3 3 1 1 3 0.635
999 153 0 29 3 3 2 1 1 2 0.853
1000 153 0 30 2 1 0 0 0 2 1.431
1001 153 0 31 2 3 0 0 0 3 1.063
1002 153 0 32 3 2 2 0 1 2 0.662
1003 153 0 33 0 0 0 1 1 0 0.966
1004 153 0 34 1 1 0 1 1 0 0.771
1005 153 0 35 0 0 2 1 1 2 0.96
1006 153 0 36 1 1 0 1 1 0 0.462
1007 153 0 37 2 3 3 0 0 2 1.03
1008 153 0 38 1 1 1 1 1 1 0.95
1009 153 0 39 0 1 2 0 1 2 0.74
1010 153 0 40 3 0 0 0 1 0 0.458
1011 153 0 41 0 0 0 1 1 0 0.41
1012 153 0 42 0 0 1 1 1 1 0.667
1013 153 0 43 2 2 2 1 1 2 0.9
1014 153 0 44 1 0 2 0 1 2 0.908
1015 153 0 45 1 1 2 1 1 2 0.708
1016 153 0 46 0 2 0 0 1 0 0.571
1017 153 0 47 3 3 2 1 1 2 0.711
1018 153 0 48 1 0 3 0 1 3 1.782
1019 153 0 49 3 3 0 1 1 0 0.758
1020 153 0 50 2 2 2 1 1 2 1.132
1021 153 0 51 3 3 1 1 1 1 0.723
1022 153 0 52 1 1 3 1 1 3 0.882
1023 153 0 53 1 2 2 0 1 2 0.683
1024 153 0 54 3 3 3 1 1 3 0.747
1025 153 0 55 0 2 2 0 1 2 1.473
1026 153 0 56 0 0 3 1 1 3 0.885
1027 153 0 57 1 1 2 1 1 2 1.221
1028 153 0 58 0 0 3 1 1 3 1.098
1029 153 0 59 1 2 1 0 1 1 0.651
1030 153 0 60 2 2 3 1 1 3 0.676
1031 153 0 61 3 2 0 0 1 0 1.244
1032 153 0 62 2 2 2 1 1 2 0.776
1033 153 0 63 0 1 3 0 1 3 0.757
1034 153 0 64 1 1 2 1 1 2 0.97
1035 153 0 65 3 0 1 0 1 1 0.944
1036 153 0 66 1 1 2 1 1 2 0.895
1037 153 0 67 3 3 3 1 0 2 1.455
1038 153 0 68 0 0 0 1 1 0 0.887
1039 153 0 69 3 3 0 1 1 0 0.864
1040 153 0 70 3 3 1 1 1 1 0.698
1041 153 0 71 3 3 2 1 1 2 0.825
1042 153 0 72 2 0 2 0 1 2 0.996
1043 153 0 73 1 1 3 1 1 3 0.793
1044 153 0 74 3 3 2 1 1 2 0.789
1045 153 0 75 3 3 0 1 1 0 0.617
1046 153 0 76 3 3 3 1 1 3 0.628
1047 153 0 77 3 3 0 1 1 0 0.558
1048 153 0 78 1 1 2 1 1 2 0.787
1049 153 0 79 3 3 2 1 1 2 0.743
1050 153 1 80 0 0 0 1 1 0 1.058
1051 153 1 81 2 1 3 0 0 2 1.5
1052 153 1 82 3 0 2 0 0 1 1.619
1053 153 1 83 3 3 3 1 1 3 0.725
1054 153 1 84 1 1 2 1 1 2 1.211
1055 153 1 85 3 3 0 1 1 0 0.792
1056 153 1 86 2 1 1 0 1 1 0.789
1057 153 1 87 2 2 2 1 1 2 0.801
1058 153 1 88 1 0 0 0 1 0 0.676
1059 153 1 89 1 1 2 1 1 2 0.765
1060 153 1 90 3 3 3 1 1 3 0.618
1061 153 1 91 2 3 0 0 0 3 2.98
1062 153 1 92 1 2 1 0 0 2 0.949
1063 153 1 93 2 2 0 1 1 0 0.672
1064 153 1 94 3 3 0 1 1 0 0.712
1065 153 1 95 1 0 2 0 1 2 0.839
1066 153 1 96 1 1 0 1 0 2 1.506
1067 153 1 97 1 2 1 0 1 1 0.52
1068 153 1 98 1 1 1 1 1 1 0.645
1069 153 1 99 0 1 3 0 1 3 1.463
1070 153 1 100 0 0 2 1 1 2 1.179
1071 153 1 101 1 2 0 0 0 2 1.241
1072 153 1 102 2 0 1 0 1 1 0.681
1073 153 1 103 0 0 1 1 1 1 0.529
1074 153 1 104 3 1 2 0 1 2 1.287
1075 153 1 105 3 3 1 1 1 1 0.649
1076 153 1 106 1 1 3 1 1 3 0.803
1077 153 1 107 1 1 2 1 1 2 0.934
1078 153 1 108 3 1 1 0 1 1 0.557
1079 153 1 109 0 1 3 0 1 3 0.978
1080 153 1 110 1 2 3 0 1 3 0.711
1081 153 1 111 3 2 1 0 1 1 0.654
1082 153 1 112 3 3 1 1 1 1 0.607
1083 153 1 113 1 1 3 1 1 3 0.754
1084 153 1 114 3 3 0 1 1 0 0.615
1085 153 1 115 1 1 1 1 1 1 0.633
1086 153 1 116 0 0 3 1 1 3 0.803
1087 153 1 117 1 0 3 0 1 3 1.223
1088 153 1 118 0 0 3 1 1 3 0.572
1089 153 1 119 3 3 0 1 1 0 0.584
1090 153 1 120 3 3 3 1 1 3 0.644
1091 153 1 121 2 2 2 1 1 2 0.733
1092 153 1 122 1 1 1 1 1 1 0.768
1093 153 1 123 2 2 3 1 1 3 0.765
1094 153 1 124 1 1 0 1 0 3 1.49
1095 153 1 125 1 1 1 1 1 1 0.569
1096 153 1 126 1 1 3 1 1 3 0.861
1097 153 1 127 3 3 2 1 1 2 0.815
1098 153 1 128 1 1 0 1 1 0 0.658
1099 153 1 129 3 3 2 1 1 2 0.875
1100 153 1 130 0 0 0 1 1 0 0.532
1101 153 1 131 3 0 2 0 1 2 0.73
1102 153 1 132 3 3 2 1 1 2 2.024
1103 153 1 133 1 1 3 1 1 3 0.849
1104 153 1 134 2 2 1 1 1 1 1.378
1105 153 1 135 0 0 1 1 1 1 0.578
1106 153 1 136 1 1 2 1 1 2 0.902
1107 153 1 137 3 0 3 0 0 0 1.206
1108 153 1 138 0 0 1 1 1 1 0.582
1109 153 1 139 1 1 1 1 1 1 0.627
1110 153 1 140 1 1 3 1 0 1 0.572
1111 153 1 141 1 1 3 1 1 3 1.028
1112 153 1 142 1 2 2 0 1 2 0.919
1113 153 1 143 2 2 3 1 1 3 0.687
1114 153 1 144 3 2 2 0 1 2 0.751
1115 153 1 145 2 2 1 1 1 1 0.812
1116 153 1 146 1 1 2 1 1 2 0.711
1117 153 1 147 3 3 3 1 1 3 0.638
1118 153 1 148 3 2 1 0 1 1 0.84
1119 153 1 149 1 1 1 1 1 1 0.674
1120 153 1 150 2 2 1 1 1 1 0.674
1121 153 1 151 1 1 2 1 1 2 0.803
1122 153 1 152 2 2 1 1 1 1 0.846
1123 153 1 153 3 3 0 1 1 0 0.793
1124 153 1 154 1 1 0 1 1 0 0.653
1125 153 1 155 3 3 0 1 1 0 0.678
1126 153 1 156 0 1 3 0 1 3 0.982
1127 153 1 157 3 3 2 1 1 2 0.635
1128 153 1 158 2 2 2 1 1 2 0.612
1129 153 1 159 3 0 0 0 1 0 0.663
1130 153 2 160 1 1 2 1 1 2 0.89
1131 153 2 161 3 3 1 1 1 1 0.699
1132 153 2 162 3 3 0 1 1 0 0.738
1133 153 2 163 1 1 1 1 1 1 0.664
1134 153 2 164 2 2 0 1 1 0 0.681
1135 153 2 165 3 1 0 0 0 1 1.673
1136 153 2 166 3 3 1 1 1 1 1.225
1137 153 2 167 2 2 0 1 1 0 0.574
1138 153 2 168 1 1 2 1 1 2 0.914
1139 153 2 169 0 1 2 0 1 2 0.698
1140 153 2 170 0 0 2 1 1 2 0.705
1141 153 2 171 2 2 1 1 0 2 1.088
1142 153 2 172 3 3 1 1 1 1 0.733
1143 153 2 173 2 1 1 0 1 1 0.795
1144 153 2 174 3 3 3 1 1 3 1.127
1145 153 2 175 3 3 2 1 1 2 0.728
1146 153 2 176 3 1 0 0 0 2 1.11
1147 153 2 177 0 1 2 0 1 2 1.075
1148 153 2 178 3 0 3 0 1 3 0.941
1149 153 2 179 2 0 2 0 1 2 1.076
1150 153 2 180 1 1 3 1 1 3 1.006
1151 153 2 181 2 2 0 1 0 3 1.002
1152 153 2 182 1 1 0 1 1 0 0.754
1153 153 2 183 0 0 2 1 1 2 0.832
1154 153 2 184 2 3 1 0 1 1 0.786
1155 153 2 185 2 2 0 1 1 0 0.638
1156 153 2 186 0 0 2 1 1 2 0.744
1157 153 2 187 1 1 0 1 1 0 0.566
1158 153 2 188 1 1 0 1 1 0 0.538
1159 153 2 189 3 3 0 1 1 0 1.015
1160 153 2 190 3 3 3 1 1 3 0.787
1161 153 2 191 1 1 3 1 1 3 0.751
1162 153 2 192 1 1 2 1 1 2 0.724
1163 153 2 193 0 1 3 0 0 2 1.267
1164 153 2 194 2 2 2 1 1 2 0.841
1165 153 2 195 3 0 1 0 1 1 0.628
1166 153 2 196 1 1 0 1 1 0 0.678
1167 153 2 197 1 1 0 1 1 0 0.598
1168 153 2 198 3 0 2 0 1 2 1.354
1169 153 2 199 0 0 3 1 1 3 0.754
1170 153 2 200 1 2 0 0 0 2 1.159
1171 153 2 201 2 3 2 0 1 2 1.417
1172 153 2 202 1 1 2 1 1 2 0.655
1173 153 2 203 3 3 0 1 1 0 0.592
1174 153 2 204 0 0 1 1 1 1 0.579
1175 153 2 205 2 3 1 0 1 1 1.271
1176 153 2 206 1 2 0 0 0 1 1.602
1177 153 2 207 2 2 3 1 0 0 1.989
1178 153 2 208 1 1 3 1 1 3 0.825
1179 153 2 209 3 0 3 0 0 2 1.204
1180 153 2 210 0 0 3 1 1 3 0.749
1181 153 2 211 0 1 2 0 1 2 1.762
1182 153 2 212 0 0 0 1 1 0 1.284
1183 153 2 213 3 3 1 1 0 2 1.23
1184 153 2 214 0 0 3 1 1 3 0.87
1185 153 2 215 0 0 2 1 1 2 0.783
1186 153 2 216 0 2 2 0 1 2 0.699
1187 153 2 217 0 0 2 1 1 2 0.834
1188 153 2 218 2 2 3 1 1 3 0.805
1189 153 2 219 2 2 2 1 1 2 0.816
1190 153 2 220 3 3 3 1 0 2 1.211
1191 153 2 221 0 1 3 0 1 3 0.699
1192 153 2 222 2 0 2 0 1 2 1.067
1193 153 2 223 0 0 2 1 1 2 0.653
1194 153 2 224 0 0 2 1 1 2 0.614
1195 153 2 225 1 1 3 1 1 3 0.792
1196 153 2 226 0 0 1 1 1 1 0.66
1197 153 2 227 2 3 3 0 0 2 0.997
1198 153 2 228 0 0 2 1 1 2 0.718
1199 153 2 229 3 3 0 1 0 3 1.197
1200 153 2 230 0 0 2 1 1 2 1.062
1201 153 2 231 3 3 1 1 1 1 0.601
1202 153 2 232 0 0 3 1 1 3 0.851
1203 153 2 233 3 3 3 1 1 3 0.717
1204 153 2 234 3 3 3 1 1 3 0.771
1205 153 2 235 2 2 0 1 1 0 1
1206 153 2 236 0 0 0 1 1 0 0.893
1207 153 2 237 2 2 2 1 1 2 1.086
1208 153 2 238 1 1 1 1 1 1 0.943
1209 153 2 239 0 2 2 0 1 2 0.95
1210 153 3 240 1 2 1 0 1 1 1.069
1211 153 3 241 0 0 3 1 1 3 0.863
1212 153 3 242 0 0 1 1 1 1 0.721
1213 153 3 243 1 1 0 1 1 0 0.655
1214 153 3 244 2 3 3 0 1 3 0.888
1215 153 3 245 1 1 2 1 1 2 0.792
1216 153 3 246 0 0 0 1 1 0 0.556
1217 153 3 247 1 0 0 0 0 1 1.441
1218 153 3 248 1 2 0 0 0 1 1.265
1219 153 3 249 1 1 1 1 1 1 0.616
1220 153 3 250 1 2 1 0 1 1 0.691
1221 153 3 251 2 2 2 1 1 2 0.642
1222 153 3 252 1 1 0 1 1 0 0.796
1223 153 3 253 1 2 0 0 1 0 0.712
1224 153 3 254 2 2 3 1 1 3 0.559
1225 153 3 255 2 2 1 1 1 1 0.724
1226 153 3 256 2 2 0 1 1 0 0.658
1227 153 3 257 2 3 1 0 1 1 0.778
1228 153 3 258 1 1 3 1 1 3 0.999
1229 153 3 259 2 2 0 1 0 2 1.012
1230 153 3 260 1 0 3 0 1 3 0.708
1231 153 3 261 1 1 0 1 1 0 0.731
1232 153 3 262 3 3 1 1 1 1 0.729
1233 153 3 263 2 1 1 0 1 1 1.111
1234 153 3 264 3 3 2 1 1 2 0.776
1235 153 3 265 1 1 3 1 1 3 0.813
1236 153 3 266 0 1 2 0 1 2 1.176
1237 153 3 267 3 3 0 1 1 0 0.679
1238 153 3 268 1 1 2 1 1 2 0.711
1239 153 3 269 1 0 2 0 1 2 0.71
1240 153 3 270 2 2 0 1 1 0 0.749
1241 153 3 271 3 3 0 1 0 2 1.403
1242 153 3 272 3 3 2 1 1 2 1.229
1243 153 3 273 1 1 3 1 1 3 0.817
1244 153 3 274 3 3 2 1 1 2 0.78
1245 153 3 275 3 3 0 1 1 0 0.72
1246 153 3 276 1 2 1 0 1 1 0.775
1247 153 3 277 3 3 3 1 1 3 0.644
1248 153 3 278 0 0 1 1 1 1 0.693
1249 153 3 279 2 2 1 1 1 1 0.845
1250 153 3 280 2 2 3 1 1 3 0.663
1251 153 3 281 2 2 1 1 1 1 0.608
1252 153 3 282 2 1 0 0 1 0 0.667
1253 153 3 283 3 1 2 0 1 2 0.739
1254 153 3 284 3 3 3 1 1 3 0.625
1255 153 3 285 3 3 0 1 1 0 0.667
1256 153 3 286 0 0 2 1 1 2 0.636
1257 153 3 287 3 3 2 1 1 2 0.741
1258 153 3 288 1 2 3 0 1 3 0.955
1259 153 3 289 2 2 0 1 1 0 0.657
1260 153 3 290 3 3 1 1 1 1 0.69
1261 153 3 291 2 2 0 1 1 0 0.65
1262 153 3 292 0 1 0 0 1 0 0.691
1263 153 3 293 0 1 1 0 1 1 0.627
1264 153 3 294 3 3 2 1 1 2 0.949
1265 153 3 295 1 1 3 1 1 3 0.86
1266 153 3 296 0 1 1 0 1 1 0.773
1267 153 3 297 3 3 2 1 1 2 0.746
1268 153 3 298 3 3 0 1 1 0 0.679
1269 153 3 299 3 1 2 0 1 2 0.887
1270 153 3 300 2 2 1 1 1 1 0.696
1271 153 3 301 2 0 3 0 1 3 0.912
1272 153 3 302 2 2 1 1 1 1 0.608
1273 153 3 303 0 0 2 1 1 2 0.738
1274 153 3 304 2 2 3 1 1 3 0.72
1275 153 3 305 1 1 3 1 1 3 0.791
1276 153 3 306 0 0 0 1 0 2 1.507
1277 153 3 307 3 2 0 0 1 0 0.721
1278 153 3 308 3 3 1 1 1 1 0.696
1279 153 3 309 3 3 2 1 1 2 0.623
1280 153 3 310 0 1 1 0 1 1 0.617
1281 153 3 311 3 3 3 1 1 3 0.676
1282 153 3 312 1 2 1 0 1 1 0.668
1283 153 3 313 3 3 1 1 1 1 0.645
1284 153 3 314 1 1 2 1 1 2 1.726
1285 153 3 315 0 0 1 1 0 0 1.177
1286 153 3 316 0 0 0 1 1 0 0.715
1287 153 3 317 2 2 2 1 1 2 0.714
1288 153 3 318 1 1 1 1 1 1 0.777
1289 153 3 319 3 2 0 0 1 0 0.806
