datID sessionID block trial WordInt ColorInt TrueInt Cong Correct Response rt
1 173 0 0 1 1 3 2 1 3 0.494
2 173 0 1 2 2 2 1 0 1 0.915
3 173 0 2 2 2 0 2 1 0 0.303
4 173 0 3 0 0 2 2 1 2 0.42
5 173 0 4 3 3 3 1 1 3 0.411
6 173 0 5 0 0 1 2 0 2 0.869
7 176 0 0 3 3 0 2 1 0 0.948
8 176 0 1 2 2 1 1 1 1 0.843
9 176 0 2 0 0 0 2 1 0 0.744
10 176 0 3 0 0 1 2 1 1 0.737
11 176 0 4 2 2 3 1 0 2 0.878
12 176 0 5 3 3 0 1 1 0 0.747
13 176 0 6 2 3 0 0 0 3 2.985
14 176 0 7 1 1 0 2 1 0 0.924
15 176 0 8 1 0 1 0 0 2 2.82
16 176 0 9 1 1 1 2 1 1 0.83
17 176 0 10 2 2 0 2 1 0 0.812
18 176 0 11 1 1 0 2 1 0 0.666
19 176 0 12 3 1 3 0 1 3 1.835
20 176 0 13 2 2 1 2 0 0 0.82
21 176 0 14 0 2 1 0 0 2 2.131
22 176 0 15 2 3 1 0 0 3 1.954
23 176 0 16 2 2 1 1 1 1 0.696
24 176 0 17 2 2 0 1 1 0 0.838
25 176 0 18 2 2 2 2 1 2 1.091
26 176 0 19 0 0 2 1 0 0 0.788
27 176 0 20 0 0 2 2 0 1 1.175
28 176 0 21 3 2 3 0 1 3 1.352
29 176 0 22 3 3 0 2 1 0 0.723
30 176 0 23 2 2 2 1 1 2 0.736
31 176 0 24 0 0 3 2 0 0 1.297
32 176 0 25 1 1 1 1 0 3 1.007
33 176 0 26 0 1 2 0 0 0 1.67
34 176 0 27 0 0 3 2 1 3 0.617
35 176 0 28 3 3 1 1 1 1 0.843
36 176 0 29 1 1 3 2 1 3 0.664
37 176 0 30 0 0 0 1 1 0 0.887
38 176 0 31 2 1 2 0 1 2 1.488
39 176 0 32 0 0 2 2 1 2 0.517
40 176 0 33 3 3 1 1 1 1 0.603
41 176 0 34 2 0 3 0 0 2 0.893
42 176 0 35 3 1 1 0 0 0 1.848
43 176 0 36 3 2 2 0 1 2 1.408
44 176 0 37 0 0 0 2 0 1 1.383
45 176 0 38 2 2 2 2 0 3 0.741
46 176 0 39 3 3 3 2 0 0 0.649
47 176 0 40 1 2 0 0 0 1 1.726
48 176 0 41 2 2 0 2 0 2 1.534
49 176 0 42 2 0 2 0 0 3 1.362
50 176 0 43 0 1 0 0 1 0 1.724
51 176 0 44 1 1 2 2 0 0 0.953
52 176 0 45 0 0 1 2 0 2 1.19
53 176 0 46 0 2 2 0 1 2 1.943
54 176 0 47 0 0 1 2 1 1 0.717
55 176 0 48 1 1 0 1 1 0 0.588
56 176 0 49 0 0 1 1 1 1 0.878
57 176 0 50 3 3 3 2 1 3 1.049
58 176 0 51 0 1 3 0 1 3 1.115
59 176 0 52 0 0 2 2 1 2 0.733
60 176 0 53 2 2 2 1 1 2 0.635
61 176 0 54 2 0 3 0 1 3 1.132
62 176 0 55 1 2 3 0 1 3 0.796
63 176 0 56 3 3 0 2 1 0 0.763
64 176 0 57 2 2 1 2 1 1 0.731
65 176 0 58 1 1 0 2 1 0 0.78
66 176 0 59 3 3 0 2 1 0 0.682
67 176 0 60 3 3 1 2 1 1 0.668
68 176 0 61 0 1 0 0 0 3 0.875
69 176 0 62 3 3 2 2 1 2 0.619
70 176 0 63 1 1 0 2 1 0 0.543
71 176 0 64 3 3 2 1 1 2 0.58
72 176 0 65 3 3 3 1 1 3 0.456
73 176 0 66 0 0 3 1 1 3 0.384
74 176 0 67 0 0 3 2 1 3 0.302
75 176 0 68 0 2 2 0 0 0 2.204
76 176 0 69 0 1 3 0 1 3 1.352
77 176 0 70 0 2 3 0 1 3 0.911
78 176 0 71 3 3 0 2 1 0 0.761
79 176 0 72 0 2 2 0 0 3 1.605
80 176 0 73 1 2 0 0 0 2 1.094
81 176 0 74 3 3 3 1 1 3 0.538
82 176 0 75 3 1 1 0 0 3 0.783
83 176 0 76 1 2 0 0 0 2 0.815
84 176 0 77 3 2 1 0 0 2 0.941
85 176 0 78 1 1 1 1 1 1 0.792
86 176 0 79 0 0 0 1 1 0 0.612
87 177 0 0 1 1 1 2 1 1 1.608
88 177 0 1 1 2 0 0 0 2 1.238
89 177 0 2 3 2 0 0 0 1 2.437
90 177 0 3 1 2 3 0 0 1 1.256
91 177 0 4 0 0 3 2 1 3 0.713
92 177 0 5 1 2 2 0 1 2 1.223
93 177 0 6 2 2 2 1 1 2 0.611
94 177 0 7 3 3 2 2 1 2 0.695
95 177 0 8 1 1 1 1 1 1 0.647
96 177 0 9 2 2 0 1 1 0 0.696
97 177 0 10 1 2 3 0 1 3 1.256
98 177 0 11 0 1 2 0 1 2 2.084
99 177 0 12 0 0 3 2 1 3 0.532
100 177 0 13 0 0 0 2 1 0 0.667
101 177 0 14 1 1 3 2 1 3 0.478
102 177 0 15 3 1 3 0 0 0 0.804
103 177 0 16 1 0 0 0 0 2 1.075
104 177 0 17 0 0 1 2 1 1 0.506
105 177 0 18 3 3 2 2 1 2 0.562
106 177 0 19 3 3 2 2 1 2 0.57
107 177 0 20 0 0 1 1 1 1 0.526
108 177 0 21 3 0 3 0 1 3 0.563
109 177 0 22 0 1 3 0 1 3 0.744
110 177 0 23 1 1 3 1 1 3 0.262
111 177 0 24 1 2 3 0 1 3 0.421
112 177 0 25 2 2 0 1 1 0 0.621
113 177 0 26 0 0 2 2 1 2 0.754
114 177 0 27 3 3 2 2 1 2 0.578
115 177 0 28 1 1 3 1 1 3 0.436
116 177 0 29 1 1 3 1 1 3 0.524
117 177 0 30 2 1 3 0 0 0 0.816
118 177 0 31 3 1 0 0 0 2 1.726
119 177 0 32 1 2 1 0 1 1 1.163
120 177 0 33 3 1 1 0 1 1 1.243
121 177 0 34 2 0 2 0 1 2 0.664
122 177 0 35 1 1 2 2 1 2 0.539
123 177 0 36 1 1 0 2 1 0 0.675
124 177 0 37 0 2 2 0 0 0 1.17
125 177 0 38 3 3 1 1 1 1 0.515
126 177 0 39 0 2 3 0 0 2 0.904
127 177 0 40 3 3 0 1 1 0 1.107
128 177 0 41 0 0 2 2 1 2 0.421
129 177 0 42 1 1 0 1 1 0 0.462
130 177 0 43 1 1 3 2 1 3 0.633
131 177 0 44 0 0 2 2 0 3 0.413
132 177 0 45 3 3 3 2 1 3 0.622
133 177 0 46 0 0 0 2 1 0 0.499
134 177 0 47 2 2 0 2 0 2 0.78
135 177 0 48 1 1 3 1 1 3 0.682
136 177 0 49 2 2 3 1 1 3 0.586
137 177 0 50 3 3 1 2 1 1 0.704
138 177 0 51 2 2 0 2 1 0 0.513
139 177 0 52 1 2 1 0 0 2 1.414
140 177 0 53 1 1 1 2 1 1 0.482
141 177 0 54 3 3 3 1 1 3 0.536
142 177 0 55 2 2 2 2 1 2 0.544
143 177 0 56 1 2 0 0 1 0 0.979
144 177 0 57 0 1 1 0 0 3 0.808
145 177 0 58 1 1 3 1 1 3 0.679
146 177 0 59 1 2 3 0 1 3 0.519
147 177 0 60 2 2 3 1 1 3 0.381
148 177 0 61 2 2 1 1 1 1 0.472
149 177 0 62 3 0 1 0 0 0 1.488
150 177 0 63 3 2 1 0 0 2 0.709
151 177 0 64 2 1 3 0 1 3 0.519
152 177 0 65 1 1 3 1 1 3 0.3
153 177 0 66 3 3 1 2 1 1 0.524
154 177 0 67 1 1 0 2 1 0 0.547
155 177 0 68 1 0 0 0 1 0 0.487
156 177 0 69 3 3 0 1 1 0 0.478
157 177 0 70 2 2 2 1 1 2 0.469
158 177 0 71 1 0 1 0 1 1 0.621
159 177 0 72 0 1 0 0 0 2 0.783
160 177 0 73 1 1 1 1 1 1 0.462
161 177 0 74 2 2 3 2 1 3 0.473
162 177 0 75 1 1 2 1 1 2 0.625
163 177 0 76 3 2 0 0 1 0 0.786
164 177 0 77 1 1 1 2 1 1 0.672
165 177 0 78 3 3 1 1 1 1 0.384
166 177 0 79 0 0 3 2 1 3 0.541
167 177 1 80 3 3 2 1 1 2 1.001
168 177 1 81 0 1 1 0 0 3 1.965
169 177 1 82 0 0 0 2 1 0 0.758
170 177 1 83 3 3 0 2 1 0 0.518
171 177 1 84 0 0 2 2 1 2 0.639
172 177 1 85 3 3 1 1 1 1 0.464
173 177 1 86 3 0 1 0 0 3 1.32
174 177 1 87 0 0 3 2 1 3 0.423
175 177 1 88 1 0 2 0 0 0 2.592
176 177 1 89 3 0 3 0 1 3 1.039
177 177 1 90 3 3 2 1 1 2 0.722
178 177 1 91 0 1 0 0 1 0 1.583
179 177 1 92 1 1 2 1 1 2 1.166
180 177 1 93 3 3 2 2 1 2 0.463
181 177 1 94 0 0 0 2 1 0 0.507
182 177 1 95 3 3 3 1 1 3 0.464
183 177 1 96 0 2 2 0 1 2 1.064
184 177 1 97 1 1 2 1 1 2 0.586
185 177 1 98 2 0 2 0 0 0 0.974
186 177 1 99 0 1 1 0 0 2 2.053
187 177 1 100 3 0 2 0 0 0 2.822
188 177 1 101 0 1 1 0 1 1 0.668
189 177 1 102 1 2 1 0 0 3 1.02
190 177 1 103 3 2 1 0 0 3 1.827
191 177 1 104 2 2 2 1 1 2 0.669
192 177 1 105 3 3 2 2 1 2 0.656
193 177 1 106 3 3 3 1 1 3 0.4
194 177 1 107 0 0 3 1 0 2 0.731
195 177 1 108 1 1 3 2 1 3 0.56
196 177 1 109 2 2 1 1 1 1 0.516
197 177 1 110 2 2 3 1 1 3 0.457
198 177 1 111 1 1 1 2 1 1 0.531
199 177 1 112 2 3 3 0 0 0 0.872
200 177 1 113 0 0 2 1 0 3 0.404
201 177 1 114 2 2 1 2 1 1 1.348
202 177 1 115 1 1 1 1 1 1 0.569
203 177 1 116 2 2 3 2 1 3 0.463
204 177 1 117 0 2 2 0 0 3 1.207
205 177 1 118 2 2 1 1 1 1 0.712
206 177 1 119 1 2 2 0 0 3 1.975
207 177 1 120 2 1 0 0 1 0 0.861
208 177 1 121 2 2 0 2 1 0 0.506
209 177 1 122 0 0 3 1 1 3 0.384
210 177 1 123 2 0 1 0 0 3 1.738
211 177 1 124 3 1 0 0 0 2 1.478
212 177 1 125 3 3 1 2 1 1 0.624
213 177 1 126 1 1 0 1 1 0 0.449
214 177 1 127 2 3 2 0 0 3 0.903
215 177 1 128 1 1 1 2 1 1 1.573
216 177 1 129 3 3 3 1 1 3 0.82
217 177 1 130 2 0 0 0 1 0 1.007
218 177 1 131 1 1 2 1 1 2 0.771
219 177 1 132 1 1 1 2 1 1 0.995
220 177 1 133 0 2 0 0 0 1 1.624
221 177 1 134 0 2 0 0 1 0 0.568
222 177 1 135 1 1 0 2 1 0 0.478
223 177 1 136 0 0 0 2 1 0 0.728
224 177 1 137 3 3 0 2 1 0 0.552
225 177 1 138 1 2 0 0 1 0 0.54
226 177 1 139 2 1 1 0 1 1 0.559
227 177 1 140 0 0 1 2 1 1 0.453
228 177 1 141 1 0 2 0 0 3 1.821
229 177 1 142 0 2 0 0 1 0 1.16
230 177 1 143 2 1 0 0 1 0 0.759
231 177 1 144 1 1 3 1 1 3 0.692
232 177 1 145 3 3 2 1 0 0 0.772
233 177 1 146 2 0 1 0 0 2 0.98
234 177 1 147 0 1 3 0 1 3 0.572
235 177 1 148 2 2 3 2 1 3 0.45
236 177 1 149 3 1 3 0 1 3 0.585
237 177 1 150 1 1 3 1 1 3 0.444
238 177 1 151 1 2 1 0 1 1 0.563
239 177 1 152 2 1 2 0 1 2 0.791
240 177 1 153 0 0 2 1 1 2 0.562
241 177 1 154 3 0 1 0 1 1 0.934
242 177 1 155 0 0 3 1 1 3 0.685
243 177 1 156 3 3 2 2 1 2 0.624
244 177 1 157 1 2 1 0 0 2 1.17
245 177 1 158 2 0 3 0 1 3 0.899
246 177 1 159 2 2 0 2 1 0 0.701
247 177 2 160 0 0 2 1 1 2 0.451
248 177 2 161 1 0 2 0 0 1 1.499
249 177 2 162 2 2 1 1 1 1 0.913
250 177 2 163 3 3 0 1 1 0 0.679
251 177 2 164 0 2 0 0 1 0 0.877
252 177 2 165 3 3 2 2 1 2 0.553
253 177 2 166 1 1 1 2 1 1 0.673
254 177 2 167 1 1 2 1 0 1 0.929
255 177 2 168 2 2 0 1 1 0 0.506
256 177 2 169 0 0 3 2 1 3 0.498
257 177 2 170 2 3 2 0 1 2 0.632
258 177 2 171 2 2 0 1 0 1 0.873
259 177 2 172 3 3 3 1 1 3 0.469
260 177 2 173 1 1 3 1 1 3 0.363
261 177 2 174 2 2 3 2 1 3 0.392
262 177 2 175 3 0 2 0 0 0 3.778
263 177 2 176 3 3 2 2 1 2 0.569
264 177 2 177 2 2 3 1 1 3 0.461
265 177 2 178 0 0 2 2 1 2 1.176
266 177 2 179 1 1 0 1 1 0 2.055
267 177 2 180 1 2 1 0 1 1 0.628
268 177 2 181 0 0 1 2 1 1 0.504
269 177 2 182 0 0 1 2 1 1 0.689
270 177 2 183 3 3 3 1 1 3 1.328
271 177 2 184 0 0 2 2 1 2 0.891
272 177 2 185 1 1 1 1 1 1 0.562
273 177 2 186 0 2 2 0 1 2 1.415
274 177 2 187 1 1 3 1 1 3 0.636
275 177 2 188 1 1 2 1 1 2 0.574
276 177 2 189 2 2 1 1 1 1 0.562
277 177 2 190 3 3 2 2 1 2 1.049
278 177 2 191 0 0 1 1 1 1 0.651
279 177 2 192 1 1 2 2 1 2 0.543
280 177 2 193 1 2 1 0 1 1 1.027
281 177 2 194 0 0 1 2 1 1 0.456
282 177 2 195 1 1 0 1 1 0 0.559
283 177 2 196 2 2 2 2 0 3 0.917
284 177 2 197 0 1 0 0 0 1 0.848
285 177 2 198 2 2 3 2 0 2 0.927
286 177 2 199 0 0 0 1 1 0 0.49
287 177 2 200 0 1 1 0 0 2 0.833
288 177 2 201 0 0 0 1 1 0 0.495
289 177 2 202 2 2 1 2 0 0 1.177
290 177 2 203 2 0 3 0 1 3 0.539
291 177 2 204 2 1 3 0 0 1 1.071
292 177 2 205 0 0 0 2 1 0 0.55
293 177 2 206 3 3 3 1 1 3 0.474
294 177 2 207 0 0 1 2 1 1 0.627
295 177 2 208 3 3 3 1 1 3 0.468
296 177 2 209 0 0 0 2 1 0 0.494
297 177 2 210 1 1 0 1 1 0 0.548
298 177 2 211 2 2 2 2 1 2 0.556
299 177 2 212 1 2 0 0 0 3 2
300 177 2 213 3 3 2 1 0 0 0.965
301 177 2 214 2 2 3 1 1 3 0.687
302 177 2 215 2 3 1 0 0 2 0.926
303 177 2 216 3 2 1 0 1 1 0.681
304 177 2 217 2 2 1 2 1 1 0.667
305 177 2 218 2 2 2 1 1 2 0.571
306 177 2 219 0 1 2 0 1 2 0.51
307 177 2 220 0 0 2 2 1 2 0.454
308 177 2 221 3 3 2 1 1 2 0.493
309 177 2 222 3 0 0 0 1 0 0.547
310 177 2 223 1 2 2 0 1 2 0.903
311 177 2 224 3 3 2 2 1 2 0.562
312 177 2 225 1 1 1 1 1 1 0.422
313 177 2 226 0 2 3 0 0 0 1.36
314 177 2 227 3 3 1 1 1 1 0.635
315 177 2 228 2 2 2 2 1 2 0.768
316 177 2 229 1 1 1 1 1 1 0.524
317 177 2 230 0 0 3 1 1 3 0.768
318 177 2 231 2 0 3 0 0 0 1.18
319 177 2 232 3 3 3 1 1 3 0.525
320 177 2 233 0 0 1 2 1 1 0.533
321 177 2 234 0 1 2 0 1 2 0.537
322 177 2 235 1 0 3 0 1 3 1.118
323 177 2 236 2 2 3 2 0 2 1.025
324 177 2 237 0 0 3 2 1 3 0.651
325 177 2 238 1 2 0 0 0 2 0.796
326 177 2 239 2 2 0 1 1 0 0.652
327 177 3 240 2 2 1 2 0 0 1.717
328 177 3 241 0 0 3 2 1 3 0.662
329 177 3 242 1 1 3 1 1 3 0.55
330 177 3 243 1 1 3 2 1 3 0.397
331 177 3 244 1 1 2 2 1 2 0.697
332 177 3 245 1 1 3 1 1 3 0.408
333 177 3 246 3 3 1 2 1 1 0.644
334 177 3 247 2 2 1 2 1 1 0.727
335 177 3 248 3 2 3 0 0 2 1.108
336 177 3 249 1 1 2 1 1 2 0.425
337 177 3 250 1 2 2 0 1 2 0.45
338 177 3 251 3 2 3 0 0 1 0.682
339 177 3 252 1 1 1 2 1 1 0.641
340 177 3 253 1 1 2 1 1 2 0.578
341 177 3 254 2 2 0 1 1 0 0.524
342 177 3 255 2 2 2 1 1 2 0.577
343 177 3 256 0 2 2 0 0 1 0.85
344 177 3 257 3 3 2 1 1 2 3.295
345 177 3 258 1 0 0 0 0 2 0.769
346 177 3 259 0 0 0 1 1 0 0.592
347 177 3 260 1 2 1 0 1 1 0.595
348 177 3 261 2 2 3 1 1 3 0.756
349 177 3 262 0 0 3 1 1 3 0.433
350 177 3 263 0 0 1 1 1 1 0.57
351 177 3 264 1 1 0 2 1 0 0.657
352 177 3 265 2 2 0 2 1 0 0.517
353 177 3 266 0 1 1 0 0 0 2.683
354 177 3 267 2 2 1 2 1 1 0.52
355 177 3 268 1 1 1 1 1 1 0.493
356 177 3 269 1 2 1 0 1 1 0.851
357 177 3 270 2 3 1 0 1 1 0.604
358 177 3 271 3 0 1 0 1 1 0.381
359 177 3 272 3 3 1 1 1 1 0.423
360 177 3 273 1 0 0 0 1 0 0.511
361 177 3 274 3 3 1 2 1 1 0.584
362 177 3 275 3 1 0 0 1 0 0.443
363 177 3 276 0 0 3 1 1 3 0.468
364 177 3 277 0 0 0 2 1 0 0.558
365 177 3 278 1 1 1 2 1 1 0.421
366 177 3 279 1 1 1 2 1 1 0.498
367 177 3 280 1 1 1 2 1 1 0.519
368 177 3 281 2 0 0 0 1 0 1.148
369 177 3 282 0 0 3 2 1 3 0.526
370 177 3 283 0 0 2 1 1 2 0.594
371 177 3 284 0 0 1 1 1 1 0.741
372 177 3 285 0 0 3 2 1 3 0.708
373 177 3 286 0 0 3 1 1 3 0.467
374 177 3 287 2 2 1 1 1 1 0.506
375 177 3 288 0 1 0 0 1 0 0.671
376 177 3 289 2 2 3 1 1 3 0.464
377 177 3 290 3 0 0 0 0 3 0.68
378 177 3 291 2 1 3 0 0 2 0.7
379 177 3 292 3 3 1 1 1 1 0.782
380 177 3 293 1 1 3 1 1 3 0.458
381 177 3 294 3 2 3 0 1 3 0.433
382 177 3 295 3 3 2 2 1 2 0.668
383 177 3 296 1 1 0 1 1 0 0.62
384 177 3 297 0 0 0 2 1 0 0.496
385 177 3 298 2 2 0 1 1 0 0.679
386 177 3 299 3 3 2 2 1 2 0.617
387 177 3 300 1 2 3 0 0 2 0.619
388 177 3 301 3 3 1 2 1 1 3.684
389 177 3 302 0 0 0 2 1 0 0.571
390 177 3 303 1 1 3 2 1 3 0.594
391 177 3 304 2 2 2 2 1 2 0.952
392 177 3 305 2 2 1 2 1 1 0.642
393 177 3 306 3 3 1 1 1 1 0.642
394 177 3 307 1 1 3 2 1 3 0.598
395 177 3 308 2 3 2 0 1 2 0.713
396 177 3 309 0 0 1 1 1 1 0.518
397 177 3 310 3 3 1 2 1 1 0.558
398 177 3 311 0 0 2 1 1 2 1.09
399 177 3 312 2 2 1 2 1 1 0.565
400 177 3 313 2 2 3 1 1 3 0.648
401 177 3 314 3 3 0 2 1 0 0.684
402 177 3 315 3 3 3 1 1 3 0.475
403 177 3 316 3 3 3 1 1 3 0.451
404 177 3 317 3 3 0 2 1 0 0.606
405 177 3 318 3 3 1 2 1 1 0.548
406 177 3 319 1 1 3 1 1 3 0.423
407 177 4 320 1 1 0 2 1 0 1.436
408 177 4 321 0 0 2 1 1 2 0.689
409 177 4 322 3 3 3 1 1 3 0.609
410 177 4 323 2 2 3 1 1 3 0.596
411 177 4 324 0 0 2 1 1 2 0.599
412 177 4 325 2 2 2 1 1 2 0.617
413 177 4 326 2 2 3 1 1 3 0.619
414 177 4 327 0 0 3 2 1 3 0.607
415 177 4 328 2 0 0 0 0 2 0.737
416 177 4 329 0 0 0 2 1 0 0.628
417 177 4 330 0 0 2 1 1 2 0.581
418 177 4 331 3 2 2 0 1 2 0.68
419 177 4 332 1 0 1 0 0 0 1.095
420 177 4 333 1 2 1 0 1 1 0.684
421 177 4 334 2 3 3 0 1 3 0.588
422 177 4 335 0 0 1 1 1 1 0.655
423 177 4 336 1 1 0 2 1 0 0.547
424 177 4 337 0 0 3 2 1 3 0.603
425 177 4 338 1 1 2 2 1 2 0.689
426 177 4 339 3 3 3 1 1 3 0.528
427 177 4 340 3 3 2 1 1 2 0.533
428 177 4 341 3 3 0 2 1 0 0.668
429 177 4 342 0 0 0 1 1 0 0.509
430 177 4 343 1 0 2 0 0 3 0.834
431 177 4 344 1 1 0 2 1 0 0.531
432 177 4 345 3 3 1 2 1 1 0.667
433 177 4 346 1 1 1 1 1 1 0.668
434 177 4 347 0 0 1 1 1 1 0.508
435 177 4 348 0 0 2 2 1 2 0.613
436 177 4 349 1 1 1 2 1 1 0.522
437 177 4 350 1 1 0 2 1 0 0.595
438 177 4 351 1 1 3 2 1 3 0.681
439 177 4 352 2 2 1 1 1 1 0.616
440 177 4 353 3 3 1 1 1 1 0.538
441 177 4 354 1 1 2 2 1 2 0.609
442 177 4 355 2 2 3 1 1 3 0.483
443 177 4 356 3 3 3 1 1 3 0.441
444 177 4 357 3 3 3 1 1 3 0.369
445 177 4 358 1 1 3 2 1 3 0.574
446 177 4 359 3 2 3 0 0 2 0.833
447 177 4 360 2 2 3 2 1 3 0.545
448 177 4 361 3 3 0 1 1 0 0.566
449 177 4 362 3 3 3 2 1 3 0.621
450 177 4 363 0 0 0 1 1 0 0.527
451 177 4 364 1 2 1 0 1 1 0.773
452 177 4 365 0 0 0 2 1 0 0.532
453 177 4 366 0 0 2 2 0 3 0.764
454 177 4 367 3 3 2 2 1 2 0.543
455 177 4 368 1 1 1 2 1 1 0.469
456 177 4 369 2 0 2 0 1 2 0.892
457 177 4 370 0 0 3 1 1 3 0.452
458 177 4 371 3 2 1 0 0 0 0.715
459 177 4 372 0 1 0 0 0 2 1.166
460 177 4 373 3 3 1 1 1 1 0.513
461 177 4 374 1 2 0 0 0 2 0.599
462 177 4 375 0 0 1 1 1 1 0.525
463 177 4 376 0 1 1 0 0 3 0.867
464 177 4 377 0 0 1 1 1 1 0.847
465 177 4 378 2 2 3 2 1 3 0.556
466 177 4 379 2 2 0 2 1 0 0.578
467 177 4 380 2 2 3 2 1 3 0.76
468 177 4 381 0 1 2 0 1 2 0.468
469 177 4 382 3 2 0 0 1 0 0.683
470 177 4 383 3 3 0 1 1 0 0.554
471 177 4 384 1 1 1 1 1 1 0.41
472 177 4 385 0 0 0 2 1 0 0.614
473 177 4 386 0 1 1 0 0 2 0.614
474 177 4 387 1 0 3 0 1 3 0.557
475 177 4 388 0 0 3 1 1 3 0.417
476 177 4 389 1 1 2 2 1 2 0.494
477 177 4 390 1 1 1 1 1 1 0.517
478 177 4 391 3 0 1 0 0 0 1.097
479 177 4 392 3 3 0 2 1 0 0.609
480 177 4 393 2 2 1 1 1 1 0.562
481 177 4 394 1 1 2 1 1 2 0.95
482 177 4 395 2 2 1 2 1 1 0.606
483 177 4 396 3 3 0 1 1 0 0.576
484 177 4 397 0 0 2 2 1 2 0.646
485 177 4 398 0 0 2 1 1 2 0.486
486 177 4 399 3 3 0 2 1 0 0.56
487 177 5 400 0 0 3 2 1 3 0.99
488 177 5 401 1 1 1 2 1 1 0.547
489 177 5 402 3 1 3 0 0 2 1.031
490 177 5 403 2 0 0 0 1 0 0.695
491 177 5 404 2 2 3 2 0 0 0.986
492 177 5 405 1 1 1 2 1 1 1.029
493 177 5 406 2 2 1 2 0 0 0.876
494 177 5 407 0 2 3 0 0 0 0.793
495 177 5 408 2 2 1 2 1 1 0.667
496 177 5 409 2 2 3 1 1 3 0.508
497 177 5 410 1 2 2 0 1 2 0.609
498 177 5 411 0 0 0 1 1 0 0.466
499 177 5 412 2 2 2 1 1 2 0.409
500 177 5 413 1 1 1 2 1 1 0.501
501 177 5 414 0 0 2 2 1 2 0.445
502 177 5 415 2 2 0 2 1 0 0.408
503 177 5 416 1 1 3 2 1 3 0.499
504 177 5 417 1 2 3 0 1 3 0.553
505 177 5 418 3 3 1 2 1 1 0.592
506 177 5 419 3 3 2 1 1 2 0.563
507 177 5 420 0 0 0 2 1 0 0.507
508 177 5 421 1 1 2 1 1 2 0.513
509 177 5 422 1 2 2 0 1 2 0.455
510 177 5 423 0 0 1 2 1 1 0.594
511 177 5 424 2 2 2 1 1 2 0.63
512 177 5 425 1 1 1 1 1 1 0.39
513 177 5 426 2 3 1 0 1 1 0.48
514 177 5 427 3 3 0 2 1 0 0.585
515 177 5 428 0 0 2 2 1 2 0.462
516 177 5 429 2 3 2 0 1 2 0.501
517 177 5 430 3 3 3 1 0 2 0.459
518 177 5 431 1 0 3 0 0 0 0.693
519 177 5 432 0 0 0 1 1 0 0.441
520 177 5 433 0 0 3 2 1 3 0.532
521 177 5 434 1 2 1 0 1 1 0.409
522 177 5 435 2 2 0 1 1 0 0.418
523 177 5 436 3 3 0 1 1 0 0.539
524 177 5 437 3 3 3 1 1 3 0.608
525 177 5 438 0 0 2 1 1 2 0.387
526 177 5 439 3 3 0 2 1 0 0.495
527 177 5 440 0 0 0 2 1 0 0.488
528 177 5 441 1 1 2 1 1 2 0.414
529 177 5 442 1 1 1 1 1 1 0.471
530 177 5 443 1 0 1 0 1 1 0.446
531 177 5 444 1 0 0 0 1 0 0.661
532 177 5 445 3 3 1 1 1 1 0.389
533 177 5 446 1 1 1 2 1 1 0.369
534 177 5 447 2 0 1 0 1 1 0.492
535 177 5 448 3 0 2 0 1 2 0.449
536 177 5 449 1 1 2 1 1 2 0.41
537 177 5 450 2 2 3 1 1 3 0.484
538 177 5 451 2 0 1 0 1 1 0.443
539 177 5 452 2 0 3 0 1 3 0.499
540 177 5 453 2 2 0 1 1 0 0.553
541 177 5 454 3 3 2 2 1 2 0.672
542 177 5 455 0 0 0 1 1 0 0.575
543 177 5 456 0 0 3 2 1 3 0.501
544 177 5 457 1 1 2 2 1 2 0.558
545 177 5 458 0 1 0 0 0 2 1.201
546 177 5 459 3 3 2 2 1 2 0.493
547 177 5 460 0 0 0 2 1 0 0.471
548 177 5 461 1 0 3 0 0 0 1.566
549 177 5 462 2 2 1 2 1 1 0.437
550 177 5 463 2 2 0 2 0 1 0.849
551 177 5 464 0 0 2 1 1 2 0.511
552 177 5 465 3 3 1 2 1 1 0.471
553 177 5 466 3 3 3 2 1 3 0.769
554 177 5 467 2 0 0 0 1 0 0.861
555 177 5 468 0 0 3 2 1 3 0.472
556 177 5 469 3 0 3 0 0 0 1.247
557 177 5 470 1 1 1 1 0 2 0.365
558 177 5 471 1 1 3 2 1 3 0.383
559 177 5 472 3 3 3 1 1 3 0.441
560 177 5 473 2 2 2 1 1 2 0.545
561 177 5 474 3 1 0 0 1 0 0.901
562 177 5 475 2 2 0 1 1 0 1.422
563 177 5 476 1 1 0 1 1 0 0.419
564 177 5 477 2 2 0 1 1 0 0.443
565 177 5 478 3 3 0 2 1 0 0.566
566 177 5 479 0 0 3 1 1 3 0.474
567 181 0 0 3 2 0 0 0 2 1.905
568 181 0 1 0 0 1 2 0 2 0.561
569 181 0 2 3 3 0 1 2 -1 0.311
570 182 0 0 1 1 1 2 0 2 1.34
571 182 0 1 0 0 3 1 1 3 1.494
572 182 0 2 3 1 3 0 0 1 1.334
573 182 0 3 2 1 2 0 0 0 1.711
574 182 0 4 0 0 3 1 1 3 1.304
575 182 0 5 1 1 3 2 0 1 2.594
576 182 0 6 1 1 3 2 0 0 0.914
577 182 0 7 1 1 2 1 1 2 0.682
578 182 0 8 0 1 0 0 1 0 1.656
579 182 0 9 2 0 2 0 0 3 1.203
580 182 0 10 2 2 0 2 0 1 1.621
581 182 0 11 2 2 2 2 1 2 0.695
582 182 0 12 0 0 3 1 1 3 0.58
583 182 0 13 2 2 3 2 0 0 0.905
584 182 0 14 3 0 3 0 0 0 1.394
585 182 0 15 3 3 2 2 0 3 2.653
586 182 0 16 2 2 3 2 0 1 0.874
587 182 0 17 1 1 3 1 1 3 0.597
588 182 0 18 2 2 3 2 1 3 0.568
589 182 0 19 0 0 1 2 1 1 0.685
590 182 0 20 0 2 0 0 0 2 1.61
591 182 0 21 3 0 2 0 0 0 1.034
592 182 0 22 1 2 1 0 0 3 1.438
593 182 0 23 0 1 3 0 1 3 1.589
594 182 0 24 3 1 0 0 0 3 0.882
595 182 0 25 1 2 3 0 0 2 1.532
596 182 0 26 0 0 2 1 1 2 0.894
597 182 0 27 2 2 2 1 1 2 0.597
598 182 0 28 2 2 0 2 1 0 0.649
599 182 0 29 1 2 1 0 1 1 1.528
600 182 0 30 0 0 3 1 1 3 1.239
601 182 0 31 2 1 2 0 0 0 1.569
602 182 0 32 0 0 2 1 1 2 1.122
603 182 0 33 3 3 3 1 1 3 1.136
604 182 0 34 0 1 3 0 0 1 1.166
605 182 0 35 2 2 2 2 1 2 0.705
606 182 0 36 1 2 3 0 0 0 3.273
607 182 0 37 0 1 1 0 0 2 1.07
608 182 0 38 3 0 0 0 0 2 1.6
609 182 0 39 3 3 0 2 0 3 1.795
610 182 0 40 1 0 2 0 0 0 1.148
611 182 0 41 3 3 1 1 0 3 1.708
612 182 0 42 3 3 3 2 1 3 0.844
613 182 0 43 0 1 0 0 1 0 0.964
614 182 0 44 2 2 1 2 1 1 1.402
615 182 0 45 1 1 1 1 0 2 1.182
616 182 0 46 0 0 1 1 0 0 2.109
617 182 0 47 2 3 3 0 1 3 1.035
618 182 0 48 0 0 2 1 1 2 0.588
619 182 0 49 2 2 2 1 0 0 2.029
620 182 0 50 3 3 0 2 0 3 0.736
621 182 0 51 3 1 3 0 0 1 2.111
622 182 0 52 0 2 0 0 1 0 0.845
623 182 0 53 1 0 3 0 0 0 1.061
624 182 0 54 2 0 0 0 1 0 0.697
625 182 0 55 0 0 1 1 1 1 0.534
626 182 0 56 3 3 0 2 1 0 0.364
627 182 0 57 1 1 2 2 1 2 1.176
628 182 0 58 1 2 3 0 0 2 0.756
629 182 0 59 3 3 1 2 1 1 0.717
630 182 0 60 1 1 0 2 0 3 2.252
631 182 0 61 2 2 0 2 1 0 1.112
632 182 0 62 2 2 2 2 1 2 0.586
633 182 0 63 1 1 2 2 0 3 1.341
634 182 0 64 2 1 1 0 1 1 0.583
635 182 0 65 2 2 3 2 1 3 1.179
636 182 0 66 0 0 0 1 1 0 0.423
637 182 0 67 2 2 3 2 0 2 0.625
638 182 0 68 1 1 2 2 0 3 1.223
639 182 0 69 3 3 2 1 1 2 0.629
640 182 0 70 0 1 2 0 0 3 1.109
641 182 0 71 0 0 1 2 2 -1 0.858
642 182 0 72 0 0 2 2 0 0 1.368
643 182 0 73 2 2 2 1 0 0 16.736
644 182 0 74 0 0 3 1 0 0 0.45
645 182 0 75 0 2 0 0 1 0 1.02
646 182 0 76 0 0 2 1 1 2 0.909
647 182 0 77 3 2 2 0 0 3 1.267
648 182 0 78 1 2 0 0 1 0 1.823
649 182 0 79 3 3 1 1 1 1 0.724
650 182 1 80 1 1 3 1 1 3 2.387
651 182 1 81 2 1 1 0 0 3 0.932
652 182 1 82 1 1 3 2 1 3 1.103
653 182 1 83 2 2 2 1 1 2 0.686
654 182 1 84 0 0 1 1 1 1 0.603
655 182 1 85 2 2 1 1 1 1 0.715
656 182 1 86 2 2 3 1 1 3 0.6
657 182 1 87 3 3 3 1 0 2 1.032
658 182 1 88 3 3 0 2 1 0 0.544
659 182 1 89 3 3 1 2 1 1 0.533
660 182 1 90 2 2 2 2 1 2 0.663
661 182 1 91 1 0 3 0 1 3 0.646
662 182 1 92 1 0 1 0 1 1 0.597
663 182 1 93 1 0 3 0 1 3 0.55
664 182 1 94 3 2 1 0 0 0 0.872
665 182 1 95 0 0 3 2 1 3 0.598
666 182 1 96 2 1 1 0 0 2 0.95
667 182 1 97 1 0 0 0 1 0 0.366
668 182 1 98 3 3 3 2 0 2 0.986
669 182 1 99 2 2 2 1 1 2 0.56
670 182 1 100 2 2 2 2 0 0 1.013
671 182 1 101 3 3 1 2 1 1 0.621
672 182 1 102 3 3 3 1 1 3 0.557
673 182 1 103 2 2 0 2 1 0 0.45
674 182 1 104 3 3 3 1 0 0 0.888
675 182 1 105 1 1 3 1 0 2 0.946
676 182 1 106 3 3 2 1 1 2 0.586
677 182 1 107 2 2 0 2 1 0 0.285
678 182 1 108 2 2 0 2 1 0 0.364
679 182 1 109 1 1 3 1 1 3 2.101
680 182 1 110 1 1 2 1 1 2 0.576
681 182 1 111 0 0 1 1 0 0 0.674
682 182 1 112 0 0 1 2 1 1 0.39
683 182 1 113 2 2 3 1 1 3 0.526
684 182 1 114 3 3 1 1 1 1 0.433
685 182 1 115 2 2 1 1 1 1 0.632
686 182 1 116 2 3 2 0 1 2 0.583
687 182 1 117 2 2 3 2 1 3 0.652
688 182 1 118 2 2 0 1 1 0 1.45
689 182 1 119 1 1 1 1 1 1 0.733
690 182 1 120 1 1 1 2 1 1 0.443
691 182 1 121 2 2 0 2 0 3 0.708
692 182 1 122 0 0 2 2 1 2 0.584
693 182 1 123 3 3 0 2 1 0 0.683
694 183 0 0 2 2 1 1 1 1 2.712
695 183 0 1 1 1 2 2 1 2 0.897
696 182 1 124 1 1 0 1 0 3 1.657
697 182 1 125 0 0 0 1 1 0 0.279
698 183 0 2 3 1 0 0 0 2 1.216
699 183 0 3 2 0 1 0 0 0 1.503
700 182 1 126 1 1 3 2 1 3 2.07
701 182 1 127 2 2 1 1 0 0 0.897
702 183 0 4 0 0 2 2 1 2 1.902
703 182 1 128 3 0 2 0 0 0 1.147
704 182 1 129 3 0 1 0 1 1 0.476
705 183 0 5 2 2 2 1 1 2 2.937
706 182 1 130 2 3 3 0 1 3 1.249
707 183 0 6 3 1 3 0 0 1 2.518
708 182 1 131 1 2 1 0 0 3 1.146
709 183 0 7 3 3 1 1 0 2 1.374
710 182 1 132 3 0 0 0 1 0 0.363
711 182 1 133 3 3 3 2 1 3 0.595
712 183 0 8 2 3 3 0 1 3 1.519
713 182 1 134 2 2 1 1 0 0 0.388
714 183 0 9 3 3 2 2 1 2 1.091
715 182 1 135 1 1 3 1 0 2 1.199
716 183 0 10 1 1 2 1 1 2 1.091
717 182 1 136 1 1 2 2 1 2 0.658
718 183 0 11 3 2 0 0 1 0 0.898
719 182 1 137 3 2 0 0 1 0 1.2
720 183 0 12 3 3 2 2 0 1 1.284
721 183 0 13 1 1 3 1 1 3 1.192
722 182 1 138 0 1 1 0 0 0 2.315
723 182 1 139 2 2 2 2 1 2 0.564
724 183 0 14 1 1 1 2 1 1 3.143
725 182 1 140 3 3 0 1 1 0 0.438
726 182 1 141 2 2 3 1 1 3 0.54
727 183 0 15 0 0 0 1 1 0 1.037
728 182 1 142 3 3 1 1 1 1 0.607
729 183 0 16 1 1 1 1 1 1 0.693
730 182 1 143 3 3 2 2 1 2 0.977
731 183 0 17 0 0 2 1 1 2 0.867
732 182 1 144 0 0 2 1 1 2 0.485
733 183 0 18 0 0 3 2 1 3 0.862
734 182 1 145 2 2 3 2 1 3 0.828
735 183 0 19 3 3 0 2 1 0 0.673
736 182 1 146 2 2 2 2 1 2 0.504
737 183 0 20 0 1 1 0 1 1 1.687
738 182 1 147 0 1 0 0 0 3 1.979
739 183 0 21 2 2 2 1 1 2 0.705
740 182 1 148 2 2 2 1 1 2 0.702
741 183 0 22 3 3 3 1 1 3 0.903
742 182 1 149 1 0 0 0 1 0 1.467
743 183 0 23 3 0 1 0 1 1 0.805
744 183 0 24 1 0 1 0 0 0 1.391
745 182 1 150 1 1 0 2 0 3 2.079
746 183 0 25 3 3 3 2 0 2 1.09
747 182 1 151 3 3 2 1 1 2 0.622
748 182 1 152 1 1 0 1 1 0 0.382
749 183 0 26 0 0 2 1 1 2 0.918
750 182 1 153 1 1 3 2 1 3 0.889
751 183 0 27 2 2 3 1 1 3 1.475
752 182 1 154 2 0 3 0 1 3 1.472
753 183 0 28 2 1 0 0 1 0 1.037
754 182 1 155 0 0 0 1 1 0 0.417
755 183 0 29 2 1 3 0 1 3 0.823
756 182 1 156 3 3 0 2 1 0 0.476
757 183 0 30 1 1 2 1 1 2 0.744
758 182 1 157 3 3 1 1 1 1 0.545
759 183 0 31 3 2 1 0 0 2 1.18
760 182 1 158 2 2 0 1 1 0 0.371
761 183 0 32 2 2 1 1 1 1 0.74
762 182 1 159 3 3 1 1 1 1 0.652
763 183 0 33 0 0 1 1 1 1 0.88
764 183 0 34 0 0 0 2 0 2 1.283
765 182 2 160 2 0 3 0 0 0 1.545
766 183 0 35 1 1 2 2 1 2 0.826
767 182 2 161 3 3 2 2 1 2 1.262
768 183 0 36 1 0 3 0 1 3 1.939
769 182 2 162 1 1 3 2 1 3 0.987
770 183 0 37 3 2 1 0 0 0 1.772
771 182 2 163 3 3 0 1 1 0 0.365
772 182 2 164 3 1 1 0 0 3 0.55
773 183 0 38 0 0 3 2 0 0 2.666
774 182 2 165 3 3 0 1 1 0 0.444
775 182 2 166 0 0 1 2 0 0 0.853
776 183 0 39 1 0 2 0 0 1 1.78
777 182 2 167 2 2 2 1 1 2 0.576
778 183 0 40 0 0 1 2 0 0 2.706
779 182 2 168 0 0 1 2 0 0 1.285
780 183 0 41 2 1 1 0 0 3 1.62
781 182 2 169 1 1 2 2 0 3 0.835
782 182 2 170 2 2 0 2 0 3 0.738
783 183 0 42 2 2 0 1 0 2 1.34
784 182 2 171 0 0 0 2 1 0 0.468
785 183 0 43 1 1 0 1 0 1 2.222
786 182 2 172 0 0 2 1 1 2 0.681
787 182 2 173 3 0 3 0 1 3 0.855
788 183 0 44 0 0 0 1 1 0 1.833
789 182 2 174 2 2 2 1 1 2 0.446
790 183 0 45 2 0 1 0 1 1 1.246
791 182 2 175 3 3 1 2 1 1 0.648
792 183 0 46 2 3 3 0 0 2 1.088
793 182 2 176 3 3 3 1 1 3 0.615
794 183 0 47 1 1 0 2 0 3 1.262
795 182 2 177 2 1 0 0 1 0 0.454
796 183 0 48 2 2 3 2 1 3 1.07
797 182 2 178 3 3 1 2 1 1 0.655
798 182 2 179 0 0 1 2 1 1 0.577
799 183 0 49 2 2 2 1 1 2 0.791
800 182 2 180 0 0 2 1 0 3 0.53
801 183 0 50 1 0 0 0 1 0 1.097
802 183 0 51 1 1 2 2 1 2 0.748
803 182 2 181 1 2 3 0 1 3 3.272
804 182 2 182 3 3 3 2 1 3 0.524
805 183 0 52 3 3 0 2 1 0 2.459
806 182 2 183 0 0 2 2 1 2 0.626
807 183 0 53 0 0 1 2 1 1 0.717
808 183 0 54 2 2 3 1 1 3 1.138
809 182 2 184 1 1 0 1 1 0 1.522
810 182 2 185 2 2 0 1 1 0 0.497
811 183 0 55 0 1 0 0 0 1 1.647
812 182 2 186 1 1 0 2 0 2 1.641
813 183 0 56 3 3 3 2 0 1 1.378
814 182 2 187 0 0 0 2 1 0 0.315
815 183 0 57 0 2 0 0 0 3 1.099
816 182 2 188 2 3 0 0 0 3 1.014
817 183 0 58 2 2 0 1 1 0 0.806
818 182 2 189 1 1 3 1 1 3 0.651
819 183 0 59 1 2 1 0 1 1 2.104
820 182 2 190 1 1 2 1 0 3 0.762
821 182 2 191 1 1 3 1 1 3 0.408
822 183 0 60 1 1 0 2 1 0 1.15
823 182 2 192 2 2 1 1 1 1 0.768
824 183 0 61 0 0 1 1 1 1 0.779
825 182 2 193 0 0 0 1 1 0 0.314
826 183 0 62 3 3 0 2 1 0 0.905
827 182 2 194 0 1 3 0 0 2 1.285
828 183 0 63 1 0 2 0 0 1 2.736
829 182 2 195 2 2 2 2 0 1 1.316
830 183 0 64 1 1 3 2 0 2 1.083
831 182 2 196 0 0 1 2 1 1 0.609
832 182 2 197 0 0 1 2 1 1 0.516
833 183 0 65 0 1 3 0 0 2 2.422
834 182 2 198 1 1 0 2 0 3 0.795
835 183 0 66 0 1 2 0 0 0 1.226
836 182 2 199 3 1 1 0 0 3 2.088
837 183 0 67 1 1 1 1 1 1 0.96
838 182 2 200 3 0 3 0 1 3 0.871
839 183 0 68 3 1 3 0 1 3 2.261
840 182 2 201 1 1 1 1 1 1 0.574
841 182 2 202 1 1 0 2 1 0 0.467
842 183 0 69 3 1 0 0 1 0 1.778
843 182 2 203 1 1 1 1 1 1 0.664
844 183 0 70 1 0 0 0 0 1 1.033
845 182 2 204 0 1 1 0 1 1 1.575
846 182 2 205 0 0 2 2 1 2 0.712
847 183 0 71 2 1 0 0 0 2 4.454
848 182 2 206 0 0 3 1 1 3 0.58
849 183 0 72 2 2 1 2 1 1 1.044
850 182 2 207 3 3 0 2 1 0 0.633
851 182 2 208 1 0 3 0 0 0 1.192
852 183 0 73 0 1 2 0 0 1 2.133
853 183 0 74 0 0 0 1 1 0 0.811
854 182 2 209 3 3 0 1 0 3 1.175
855 183 0 75 3 3 3 2 1 3 1.152
856 182 2 210 0 1 2 0 0 3 2.183
857 183 0 76 2 3 1 0 0 3 1.165
858 182 2 211 1 1 3 1 1 3 0.642
859 183 0 77 3 3 2 1 1 2 1.037
860 182 2 212 0 1 2 0 0 3 0.801
861 182 2 213 0 0 2 2 1 2 0.641
862 183 0 78 0 1 3 0 0 1 1.295
863 182 2 214 3 3 0 1 1 0 0.608
864 183 0 79 0 0 2 1 1 2 1.027
865 182 2 215 0 0 1 2 1 1 0.835
866 182 2 216 2 2 1 2 1 1 0.558
867 182 2 217 1 2 2 0 0 0 1.281
868 182 2 218 3 3 2 2 0 3 1.647
869 182 2 219 2 2 1 1 1 1 0.797
870 183 1 80 1 1 2 1 1 2 1.103
871 182 2 220 2 1 3 0 1 3 0.919
872 183 1 81 2 3 2 0 1 2 1.374
873 182 2 221 1 1 3 1 1 3 0.588
874 183 1 82 3 3 1 2 1 1 0.823
875 182 2 222 0 0 2 1 1 2 0.941
876 183 1 83 0 0 2 1 1 2 0.88
877 182 2 223 1 1 2 2 0 3 1.269
878 183 1 84 3 3 0 1 1 0 0.839
879 182 2 224 1 0 3 0 0 0 0.785
880 183 1 85 2 2 1 1 1 1 0.696
881 182 2 225 0 0 1 1 1 1 0.638
882 183 1 86 3 3 1 1 1 1 0.758
883 182 2 226 3 2 0 0 1 0 0.733
884 183 1 87 1 2 1 0 0 2 2.649
885 182 2 227 1 0 3 0 1 3 0.745
886 182 2 228 2 2 3 2 1 3 0.455
887 183 1 88 0 2 1 0 1 1 0.773
888 182 2 229 2 0 0 0 1 0 0.397
889 183 1 89 0 2 3 0 1 3 1.792
890 182 2 230 0 1 0 0 0 3 1.125
891 183 1 90 2 2 0 1 1 0 0.766
892 182 2 231 1 1 3 2 1 3 0.473
893 183 1 91 2 2 3 2 1 3 0.932
894 182 2 232 1 1 2 2 1 2 0.802
895 183 1 92 1 1 3 1 1 3 0.774
896 182 2 233 3 3 1 1 1 1 0.555
897 183 1 93 2 0 1 0 1 1 1.121
898 182 2 234 1 1 1 1 1 1 0.541
899 182 2 235 0 0 0 2 1 0 0.354
900 183 1 94 3 3 2 2 1 2 0.771
901 183 1 95 3 3 1 1 1 1 0.75
902 182 2 236 2 3 0 0 1 0 0.924
903 182 2 237 3 3 0 1 1 0 0.385
904 183 1 96 2 1 3 0 0 2 2.241
905 182 2 238 3 2 1 0 1 1 0.505
906 183 1 97 2 2 0 2 1 0 0.646
907 182 2 239 1 2 0 0 0 1 1.581
908 183 1 98 3 3 2 2 1 2 0.929
909 183 1 99 1 1 1 1 0 0 1.294
910 182 3 240 3 2 1 0 0 3 1.671
911 182 3 241 0 0 3 1 0 0 0.293
912 183 1 100 2 1 0 0 0 2 1.722
913 182 3 242 2 2 1 1 1 1 0.451
914 183 1 101 3 3 2 1 1 2 1.039
915 182 3 243 2 2 1 2 1 1 0.508
916 183 1 102 2 1 1 0 0 2 1.8
917 182 3 244 1 0 1 0 0 0 1.104
918 182 3 245 2 1 2 0 0 3 1.058
919 183 1 103 0 2 1 0 1 1 2.69
920 182 3 246 1 1 1 1 0 3 0.934
921 183 1 104 0 0 3 2 0 0 1.431
922 182 3 247 0 0 0 2 1 0 0.337
923 183 1 105 1 1 0 1 1 0 1.022
924 182 3 248 3 3 0 1 0 2 1.306
925 182 3 249 1 1 0 2 0 3 0.52
926 183 1 106 1 1 2 1 1 2 1.112
927 183 1 107 1 2 0 0 0 3 1.949
928 182 3 250 3 0 1 0 1 1 1.935
929 182 3 251 1 1 3 1 1 3 0.672
930 183 1 108 0 0 0 2 0 1 2.005
931 182 3 252 3 3 0 1 1 0 0.446
932 182 3 253 3 1 0 0 0 3 1.14
933 183 1 109 1 1 3 1 0 2 3.039
934 182 3 254 3 3 3 2 1 3 0.696
935 183 1 110 0 0 0 1 1 0 0.98
936 182 3 255 0 0 0 1 1 0 0.325
937 183 1 111 0 0 2 2 1 2 0.827
938 182 3 256 2 1 0 0 0 2 1.776
939 183 1 112 2 2 0 1 0 1 1.74
940 182 3 257 2 2 3 2 1 3 0.605
941 183 1 113 3 3 0 1 1 0 0.712
942 182 3 258 1 1 1 1 1 1 0.813
943 183 1 114 3 3 0 1 1 0 0.717
944 182 3 259 1 1 2 1 1 2 0.583
945 183 1 115 3 3 2 1 1 2 0.794
946 182 3 260 2 2 1 2 0 3 0.715
947 183 1 116 2 2 0 1 1 0 0.844
948 182 3 261 2 3 2 0 0 0 1.419
949 183 1 117 2 0 3 0 1 3 1.085
950 182 3 262 1 2 2 0 1 2 0.85
951 183 1 118 3 3 1 1 1 1 0.844
952 182 3 263 2 2 2 2 1 2 0.445
953 183 1 119 2 0 3 0 1 3 0.933
954 182 3 264 0 0 0 2 1 0 0.406
955 182 3 265 0 0 1 1 1 1 0.621
956 183 1 120 3 1 3 0 0 2 1.65
957 182 3 266 0 0 1 1 1 1 0.637
958 183 1 121 2 2 3 2 1 3 1.452
959 182 3 267 0 0 2 1 0 1 0.364
960 183 1 122 1 1 2 2 1 2 0.882
961 182 3 268 0 1 3 0 0 2 0.969
962 182 3 269 0 0 0 2 1 0 0.387
963 183 1 123 1 2 3 0 0 2 1.841
964 182 3 270 2 2 1 1 1 1 0.539
965 183 1 124 0 0 1 2 1 1 0.9
966 182 3 271 3 2 0 0 0 2 1.485
967 183 1 125 0 0 3 2 1 3 0.966
968 183 1 126 0 1 1 0 1 1 0.818
969 182 3 272 0 1 2 0 0 3 1.634
970 183 1 127 0 2 3 0 1 3 0.803
971 182 3 273 1 0 3 0 1 3 2.609
972 183 1 128 1 1 2 1 1 2 0.86
973 183 1 129 0 1 0 0 1 0 0.86
974 182 3 274 0 2 1 0 0 2 1.641
975 183 1 130 3 3 0 1 1 0 0.644
976 182 3 275 3 3 0 1 0 2 0.968
977 182 3 276 2 2 3 1 1 3 0.51
978 183 1 131 2 0 0 0 1 0 2.1
979 183 1 132 2 2 0 2 1 0 0.779
980 182 3 277 1 2 0 0 0 3 2.066
981 182 3 278 0 0 2 2 1 2 0.517
982 183 1 133 2 2 1 2 1 1 0.776
983 182 3 279 2 2 3 1 1 3 0.824
984 183 1 134 1 1 2 1 1 2 0.827
985 182 3 280 2 2 3 2 1 3 0.452
986 183 1 135 0 0 2 2 1 2 1.032
987 182 3 281 3 3 2 1 1 2 0.537
988 183 1 136 3 3 0 2 1 0 0.828
989 182 3 282 2 2 1 2 0 0 0.639
990 183 1 137 3 3 2 1 1 2 0.701
991 182 3 283 1 1 1 1 0 3 0.994
992 183 1 138 2 2 2 2 1 2 0.734
993 182 3 284 2 2 1 2 1 1 1.003
994 183 1 139 0 0 0 1 1 0 0.746
995 182 3 285 2 2 1 2 1 1 0.544
996 183 1 140 3 3 0 1 0 3 1.478
997 182 3 286 3 3 0 1 1 0 0.467
998 183 1 141 2 2 1 2 1 1 0.966
999 182 3 287 2 3 1 0 0 2 1.112
1000 183 1 142 3 3 1 1 1 1 0.698
1001 182 3 288 2 2 0 2 1 0 0.349
1002 183 1 143 1 1 1 2 1 1 0.675
1003 182 3 289 0 0 3 1 1 3 0.615
1004 183 1 144 0 0 3 2 1 3 0.82
1005 182 3 290 3 3 0 2 1 0 0.458
1006 182 3 291 0 1 2 0 1 2 0.944
1007 183 1 145 0 2 3 0 0 1 3.333
1008 182 3 292 0 0 0 1 1 0 0.388
1009 183 1 146 0 0 2 1 1 2 0.792
1010 182 3 293 1 0 0 0 1 0 1.084
1011 182 3 294 2 2 1 1 1 1 0.763
1012 183 1 147 0 1 3 0 0 2 1.915
1013 182 3 295 1 2 2 0 1 2 1.27
1014 183 1 148 3 0 3 0 0 1 1.6
1015 182 3 296 3 0 2 0 0 0 0.671
1016 183 1 149 2 2 1 1 1 1 0.969
1017 182 3 297 2 2 0 2 1 0 0.659
1018 183 1 150 0 0 1 2 1 1 0.765
1019 182 3 298 3 3 3 1 1 3 0.834
1020 183 1 151 3 3 0 1 1 0 0.929
1021 182 3 299 2 2 0 1 1 0 0.506
1022 183 1 152 1 2 1 0 1 1 1.094
1023 182 3 300 0 0 0 1 1 0 0.318
1024 182 3 301 2 2 2 2 1 2 0.827
1025 183 1 153 3 2 0 0 0 3 3.91
1026 182 3 302 2 1 1 0 0 3 0.66
1027 182 3 303 0 0 1 2 1 1 0.681
1028 183 1 154 0 1 2 0 1 2 3.212
1029 182 3 304 2 2 3 2 1 3 0.586
1030 183 1 155 0 0 1 1 1 1 0.973
1031 182 3 305 1 1 3 2 0 2 1.209
1032 182 3 306 0 0 3 2 1 3 0.667
1033 183 1 156 3 2 3 0 0 2 1.209
1034 182 3 307 2 0 0 0 1 0 1.513
1035 183 1 157 0 2 3 0 0 1 1.72
1036 182 3 308 2 2 1 1 1 1 0.632
1037 183 1 158 3 3 2 2 1 2 1.184
1038 182 3 309 2 1 2 0 1 2 1.192
1039 183 1 159 1 1 2 2 1 2 2.599
1040 182 3 310 0 0 3 2 1 3 0.455
1041 182 3 311 1 1 1 1 1 1 0.572
1042 182 3 312 0 1 2 0 1 2 1.294
1043 182 3 313 2 2 0 2 1 0 0.681
1044 182 3 314 3 3 2 2 1 2 0.586
1045 182 3 315 3 3 3 1 1 3 0.395
1046 182 3 316 3 3 1 2 1 1 0.87
1047 183 2 160 3 3 1 1 1 1 0.754
1048 182 3 317 1 1 0 1 1 0 0.428
1049 183 2 161 2 2 0 2 1 0 0.64
1050 182 3 318 3 3 3 2 1 3 1.014
1051 182 3 319 2 0 3 0 0 0 0.696
1052 183 2 162 1 2 3 0 0 1 1.912
1053 183 2 163 1 2 1 0 0 2 1.894
1054 182 4 320 0 0 1 2 1 1 0.613
1055 183 2 164 3 3 2 1 1 2 0.724
1056 182 4 321 0 2 2 0 0 1 2.757
1057 183 2 165 1 1 0 1 1 0 0.76
1058 182 4 322 0 0 1 1 0 0 0.444
1059 183 2 166 2 2 1 1 1 1 0.58
1060 182 4 323 1 1 2 1 1 2 0.662
1061 183 2 167 3 3 3 2 1 3 0.793
1062 182 4 324 0 0 0 1 1 0 0.34
1063 183 2 168 2 2 1 2 1 1 0.862
1064 182 4 325 0 1 2 0 1 2 0.845
1065 183 2 169 3 3 1 2 1 1 0.657
1066 182 4 326 1 1 3 2 1 3 0.568
1067 183 2 170 3 3 1 2 1 1 0.619
1068 182 4 327 2 2 3 2 1 3 0.989
1069 183 2 171 0 0 0 1 1 0 0.718
1070 182 4 328 2 2 3 1 1 3 0.512
1071 183 2 172 3 3 0 2 1 0 0.63
1072 182 4 329 2 3 1 0 1 1 0.515
1073 182 4 330 1 1 0 2 1 0 0.458
1074 183 2 173 2 0 3 0 0 1 1.75
1075 182 4 331 2 2 0 2 1 0 0.531
1076 183 2 174 3 3 3 2 1 3 0.724
1077 182 4 332 3 2 3 0 1 3 0.662
1078 183 2 175 3 1 0 0 0 2 1.273
1079 182 4 333 3 3 1 1 1 1 0.644
1080 183 2 176 3 0 2 0 0 1 2.142
1081 182 4 334 0 0 0 2 1 0 0.902
1082 182 4 335 1 1 1 2 1 1 0.639
1083 183 2 177 3 3 3 2 1 3 1.983
1084 182 4 336 1 2 1 0 1 1 0.462
1085 183 2 178 3 3 3 1 1 3 0.846
1086 182 4 337 3 3 2 1 1 2 0.591
1087 183 2 179 2 2 0 2 0 2 1.065
1088 182 4 338 1 1 2 1 1 2 0.592
1089 183 2 180 0 0 0 2 1 0 0.784
1090 182 4 339 0 0 2 2 1 2 0.5
1091 182 4 340 0 0 0 2 1 0 0.459
1092 183 2 181 1 0 0 0 1 0 1.875
1093 182 4 341 0 0 0 1 1 0 0.129
1094 183 2 182 3 3 3 2 1 3 0.77
1095 182 4 342 2 2 0 1 1 0 0.498
1096 183 2 183 2 3 3 0 1 3 1.533
1097 182 4 343 3 3 0 2 0 3 1.05
1098 182 4 344 1 1 0 1 1 0 0.43
1099 183 2 184 3 3 3 2 1 3 2.591
1100 183 2 185 2 2 1 2 1 1 0.78
1101 182 4 345 0 2 1 0 1 1 1.153
1102 182 4 346 2 2 0 2 1 0 0.401
1103 183 2 186 2 2 3 1 1 3 0.863
1104 182 4 347 0 2 3 0 1 3 0.633
1105 183 2 187 1 0 0 0 1 0 1.175
1106 182 4 348 3 3 3 1 1 3 0.632
1107 183 2 188 2 2 1 2 1 1 0.854
1108 182 4 349 1 2 0 0 0 3 0.919
1109 183 2 189 2 1 2 0 1 2 1.35
1110 182 4 350 2 0 2 0 1 2 0.896
1111 183 2 190 0 0 3 2 1 3 0.864
1112 182 4 351 2 3 1 0 1 1 0.79
1113 183 2 191 0 0 0 1 1 0 0.824
1114 182 4 352 2 1 0 0 1 0 0.475
1115 182 4 353 3 3 0 2 1 0 0.643
1116 183 2 192 2 3 2 0 0 1 3.185
1117 182 4 354 0 0 1 2 1 1 0.565
1118 183 2 193 0 0 0 1 1 0 1.273
1119 182 4 355 3 3 2 2 1 2 0.667
1120 183 2 194 3 3 3 1 1 3 0.666
1121 182 4 356 2 2 3 2 1 3 0.459
1122 183 2 195 2 2 1 2 1 1 0.812
1123 182 4 357 2 3 2 0 1 2 1.457
1124 183 2 196 2 0 1 0 1 1 0.646
1125 182 4 358 3 0 0 0 1 0 0.259
1126 183 2 197 3 3 1 1 1 1 1.038
1127 182 4 359 3 3 1 1 1 1 0.768
1128 182 4 360 0 2 1 0 1 1 0.458
1129 183 2 198 1 2 3 0 0 2 2.847
1130 182 4 361 2 2 0 1 1 0 0.384
1131 182 4 362 0 0 0 2 1 0 0.395
1132 183 2 199 0 1 1 0 0 3 2.708
1133 182 4 363 3 3 3 1 1 3 0.851
1134 183 2 200 3 3 2 1 1 2 0.717
1135 182 4 364 2 2 1 2 1 1 0.541
1136 183 2 201 0 0 2 1 1 2 0.769
1137 182 4 365 0 1 1 0 1 1 0.672
1138 183 2 202 0 0 1 2 1 1 0.959
1139 182 4 366 0 0 3 1 1 3 1.054
1140 183 2 203 3 0 1 0 0 0 1.188
1141 182 4 367 0 0 0 2 1 0 0.369
1142 182 4 368 1 1 3 1 1 3 0.746
1143 183 2 204 1 1 2 1 1 2 1.491
1144 182 4 369 0 0 2 2 1 2 0.744
1145 183 2 205 3 3 0 1 0 1 1.429
1146 182 4 370 0 0 2 1 1 2 0.772
1147 183 2 206 2 2 1 1 0 3 1.26
1148 182 4 371 2 3 0 0 1 0 0.478
1149 183 2 207 0 0 0 1 1 0 0.801
1150 182 4 372 1 1 3 2 0 2 0.966
1151 183 2 208 3 3 2 1 1 2 0.755
1152 182 4 373 1 1 1 1 1 1 0.845
1153 183 2 209 3 3 2 2 1 2 0.866
1154 182 4 374 2 1 2 0 1 2 0.981
1155 183 2 210 1 1 0 2 1 0 0.748
1156 182 4 375 3 3 2 2 1 2 0.475
1157 183 2 211 3 2 1 0 1 1 1.136
1158 182 4 376 1 1 2 1 1 2 0.512
1159 182 4 377 1 1 1 1 1 1 0.724
1160 183 2 212 2 2 1 2 0 0 2.409
1161 182 4 378 0 0 1 1 1 1 0.528
1162 183 2 213 1 1 1 1 1 1 1.101
1163 182 4 379 3 3 0 2 1 0 0.422
1164 183 2 214 3 3 0 1 1 0 0.716
1165 182 4 380 3 3 3 1 1 3 0.653
1166 182 4 381 3 2 3 0 1 3 0.604
1167 183 2 215 2 2 2 2 1 2 1.548
1168 182 4 382 0 0 2 2 1 2 0.639
1169 183 2 216 2 2 3 1 1 3 0.819
1170 182 4 383 3 0 2 0 1 2 0.574
1171 183 2 217 1 1 0 2 0 1 1.847
1172 182 4 384 2 2 1 2 1 1 0.499
1173 182 4 385 3 0 3 0 1 3 0.774
1174 183 2 218 1 0 0 0 0 1 2.831
1175 182 4 386 1 1 3 1 1 3 0.625
1176 183 2 219 1 1 2 2 1 2 0.799
1177 182 4 387 3 3 1 1 1 1 0.528
1178 183 2 220 2 0 2 0 0 1 2.289
1179 182 4 388 3 3 2 1 1 2 0.852
1180 182 4 389 1 0 3 0 1 3 0.651
1181 183 2 221 1 1 1 1 0 2 1.258
1182 182 4 390 2 0 1 0 1 1 0.458
1183 183 2 222 3 1 2 0 1 2 1.111
1184 182 4 391 3 0 2 0 1 2 0.607
1185 183 2 223 0 0 0 1 1 0 0.726
1186 182 4 392 3 0 2 0 1 2 0.496
1187 183 2 224 3 2 2 0 1 2 1.531
1188 182 4 393 2 2 2 2 1 2 0.535
1189 183 2 225 3 1 0 0 0 3 1.771
1190 182 4 394 3 3 0 2 0 3 1.757
1191 182 4 395 2 2 3 1 1 3 0.584
1192 183 2 226 3 0 1 0 1 1 1.518
1193 182 4 396 1 1 0 1 1 0 0.473
1194 183 2 227 1 1 3 1 1 3 1.142
1195 182 4 397 0 2 0 0 0 3 1.038
1196 183 2 228 3 3 3 2 1 3 0.831
1197 182 4 398 3 0 3 0 0 0 0.707
1198 183 2 229 0 0 0 1 1 0 0.768
1199 182 4 399 1 1 2 1 1 2 0.659
1200 183 2 230 2 3 2 0 0 3 3.011
1201 182 5 400 0 0 0 2 1 0 0.685
1202 183 2 231 0 0 3 2 0 0 2.14
1203 182 5 401 0 0 3 2 1 3 0.589
1204 182 5 402 1 1 2 1 1 2 0.686
1205 183 2 232 0 1 3 0 0 2 2.178
1206 182 5 403 0 2 2 0 1 2 1.003
1207 183 2 233 2 3 3 0 0 1 2.007
1208 182 5 404 3 3 0 1 0 3 0.701
1209 183 2 234 2 0 3 0 1 3 1.305
1210 182 5 405 0 0 3 2 1 3 1.809
1211 183 2 235 1 2 2 0 1 2 1.265
1212 182 5 406 3 3 1 2 1 1 0.649
1213 183 2 236 0 0 3 2 1 3 0.973
1214 182 5 407 1 1 0 1 1 0 0.84
1215 182 5 408 1 1 2 2 1 2 0.627
1216 183 2 237 3 2 0 0 0 2 2.793
1217 182 5 409 3 3 1 2 0 3 1.029
1218 183 2 238 2 2 3 1 1 3 1.751
1219 182 5 410 1 1 3 2 1 3 0.669
1220 183 2 239 1 1 1 1 1 1 1.159
1221 182 5 411 3 3 1 1 0 2 0.987
1222 182 5 412 1 2 0 0 0 3 1.051
1223 182 5 413 3 3 2 2 1 2 0.53
1224 182 5 414 0 0 2 1 1 2 0.853
1225 182 5 415 1 2 2 0 0 0 0.94
1226 182 5 416 2 2 2 2 0 1 1.207
1227 182 5 417 2 3 2 0 0 3 0.854
1228 182 5 418 2 2 3 2 0 2 0.708
1229 182 5 419 1 2 0 0 1 0 0.468
1230 182 5 420 0 0 3 1 1 3 0.761
1231 182 5 421 3 0 0 0 1 0 0.42
1232 183 3 240 0 2 2 0 1 2 1.671
1233 182 5 422 0 0 3 1 1 3 0.507
1234 183 3 241 1 1 0 2 1 0 0.877
1235 182 5 423 3 3 0 1 1 0 0.495
1236 183 3 242 2 2 1 1 1 1 0.636
1237 182 5 424 3 3 2 2 1 2 0.662
1238 183 3 243 3 3 2 2 1 2 0.839
1239 182 5 425 2 3 0 0 0 3 0.901
1240 182 5 426 1 1 0 2 0 2 0.817
1241 183 3 244 3 3 3 2 1 3 0.922
1242 182 5 427 0 0 3 2 0 0 0.544
1243 183 3 245 3 3 0 1 1 0 0.664
1244 182 5 428 0 0 0 2 1 0 0.377
1245 183 3 246 2 2 2 2 1 2 0.778
1246 182 5 429 3 3 2 1 1 2 0.546
1247 183 3 247 0 0 2 2 1 2 0.824
1248 182 5 430 0 0 0 1 1 0 0.389
1249 183 3 248 2 2 2 2 1 2 0.676
1250 182 5 431 2 2 1 1 1 1 0.621
1251 183 3 249 3 3 1 1 1 1 0.651
1252 182 5 432 1 1 3 1 1 3 0.813
1253 183 3 250 3 3 1 2 1 1 0.741
1254 182 5 433 2 2 0 1 0 3 1.446
1255 183 3 251 1 2 3 0 0 0 2.057
1256 182 5 434 2 2 2 1 1 2 0.364
1257 183 3 252 0 0 2 1 0 1 1.922
1258 182 5 435 3 3 0 1 1 0 1.317
1259 183 3 253 2 2 1 2 1 1 0.694
1260 182 5 436 1 2 2 0 1 2 0.78
1261 183 3 254 0 0 3 2 1 3 0.767
1262 182 5 437 2 1 3 0 1 3 0.854
1263 183 3 255 2 2 1 2 1 1 0.765
1264 182 5 438 3 3 2 2 1 2 0.513
1265 182 5 439 0 0 1 2 0 3 0.584
1266 183 3 256 2 1 0 0 1 0 0.784
1267 183 3 257 0 0 3 1 1 3 0.691
1268 182 5 440 3 3 0 1 1 0 1.212
1269 183 3 258 0 0 0 2 1 0 0.708
1270 182 5 441 2 3 3 0 1 3 0.758
1271 183 3 259 0 0 0 1 1 0 0.625
1272 182 5 442 1 1 1 2 1 1 0.836
1273 183 3 260 1 1 1 2 0 2 1.716
1274 182 5 443 2 2 0 2 0 1 1.257
1275 182 5 444 3 0 3 0 0 0 1.334
1276 183 3 261 3 1 3 0 0 2 2.177
1277 182 5 445 0 0 1 2 1 1 0.563
1278 183 3 262 3 3 0 2 1 0 0.792
1279 182 5 446 2 2 2 1 0 3 0.885
1280 183 3 263 0 0 1 2 1 1 0.796
1281 182 5 447 1 1 2 1 1 2 0.783
1282 183 3 264 0 1 3 0 0 2 1.295
1283 182 5 448 2 1 0 0 0 3 0.824
1284 183 3 265 1 2 2 0 1 2 1.17
1285 182 5 449 0 1 3 0 1 3 0.837
1286 183 3 266 0 1 1 0 0 0 1.271
1287 182 5 450 0 2 1 0 0 0 0.813
1288 183 3 267 0 0 0 2 1 0 1.83
1289 182 5 451 0 1 0 0 0 3 1.321
1290 183 3 268 3 3 1 2 1 1 1.102
1291 182 5 452 1 2 3 0 1 3 0.996
1292 182 5 453 3 3 0 1 1 0 0.438
1293 183 3 269 1 1 0 1 0 2 1.878
1294 182 5 454 0 0 0 2 1 0 0.48
1295 183 3 270 0 0 1 2 1 1 1
1296 182 5 455 1 1 2 2 0 1 1.031
1297 183 3 271 0 0 3 2 1 3 0.949
1298 182 5 456 3 3 2 1 0 3 0.507
1299 183 3 272 1 1 1 1 1 1 0.93
1300 182 5 457 1 1 2 2 0 3 0.678
1301 183 3 273 2 2 2 1 1 2 0.735
1302 182 5 458 3 2 2 0 0 0 1.223
1303 183 3 274 0 0 3 1 1 3 1.524
1304 182 5 459 0 0 0 2 1 0 0.296
1305 182 5 460 3 2 1 0 0 0 0.868
1306 183 3 275 1 1 2 2 1 2 0.935
1307 182 5 461 1 2 2 0 1 2 1.39
1308 183 3 276 3 0 1 0 1 1 1.876
1309 182 5 462 3 3 2 2 0 3 2.07
1310 183 3 277 1 1 3 1 1 3 1.512
1311 182 5 463 0 2 1 0 1 1 0.469
1312 183 3 278 3 3 2 1 1 2 0.776
1313 182 5 464 0 0 0 2 1 0 0.541
1314 183 3 279 0 0 3 2 1 3 0.69
1315 182 5 465 2 2 3 1 0 1 0.591
1316 183 3 280 3 1 0 0 0 2 1.16
1317 182 5 466 1 1 2 1 1 2 1.156
1318 183 3 281 1 1 0 2 0 1 1.9
1319 182 5 467 3 3 3 1 0 2 1.184
1320 183 3 282 3 3 1 2 0 3 0.989
1321 182 5 468 0 2 0 0 0 3 1.152
1322 183 3 283 0 0 2 2 1 2 0.799
1323 182 5 469 1 0 1 0 1 1 0.704
1324 183 3 284 0 1 2 0 0 1 3.073
1325 182 5 470 0 0 3 1 1 3 0.909
1326 182 5 471 0 0 3 2 1 3 0.405
1327 183 3 285 0 0 3 1 1 3 0.972
1328 182 5 472 0 0 3 2 1 3 0.16
1329 182 5 473 0 0 3 2 1 3 0.307
1330 183 3 286 1 1 1 2 0 2 2.395
1331 182 5 474 3 3 3 2 1 3 0.481
1332 183 3 287 0 0 3 1 1 3 0.704
1333 182 5 475 1 0 0 0 0 3 0.694
1334 183 3 288 1 1 3 2 1 3 1.365
1335 182 5 476 3 3 3 1 1 3 0.375
1336 183 3 289 0 0 1 2 1 1 0.998
1337 182 5 477 3 3 1 1 1 1 0.832
1338 183 3 290 0 0 0 2 1 0 0.756
1339 182 5 478 1 1 3 1 1 3 0.488
1340 182 5 479 3 3 0 2 1 0 0.512
1341 183 3 291 1 1 1 2 1 1 1.427
1342 183 3 292 3 3 2 2 1 2 0.793
1343 183 3 293 0 0 3 1 1 3 0.972
1344 183 3 294 3 3 1 1 1 1 0.792
1345 183 3 295 2 2 1 2 0 3 3.637
1346 183 3 296 2 2 0 1 1 0 1.357
1347 183 3 297 1 1 1 2 1 1 0.782
1348 183 3 298 0 0 3 2 1 3 0.82
1349 183 3 299 0 0 0 1 1 0 0.805
1350 183 3 300 2 2 1 1 1 1 1.431
1351 183 3 301 3 3 2 1 1 2 0.73
1352 183 3 302 0 0 2 1 1 2 0.782
1353 183 3 303 3 3 2 1 1 2 0.624
1354 183 3 304 3 3 3 1 1 3 1.321
1355 183 3 305 0 1 3 0 0 2 1.464
1356 183 3 306 3 0 0 0 0 3 4.086
1357 183 3 307 2 0 0 0 1 0 1.03
1358 183 3 308 0 2 1 0 1 1 1.832
1359 183 3 309 0 0 3 1 1 3 1.157
1360 183 3 310 3 3 3 1 0 2 1.146
1361 183 3 311 3 3 3 2 0 1 1.119
1362 183 3 312 3 3 1 2 1 1 0.86
1363 183 3 313 3 3 3 1 1 3 0.964
1364 183 3 314 1 1 0 1 1 0 0.672
1365 183 3 315 1 1 0 2 1 0 0.73
1366 183 3 316 3 0 2 0 0 1 1.206
1367 183 3 317 1 1 0 1 0 2 1.534
1368 183 3 318 1 1 1 2 1 1 0.78
1369 183 3 319 3 3 1 2 1 1 0.842
1370 183 4 320 3 0 1 0 0 0 1.242
1371 183 4 321 1 1 1 2 1 1 0.843
1372 183 4 322 0 1 1 0 1 1 1.42
1373 183 4 323 2 2 1 1 1 1 0.711
1374 183 4 324 2 2 0 2 0 2 0.864
1375 183 4 325 2 2 3 2 1 3 0.742
1376 183 4 326 1 0 0 0 1 0 0.954
1377 183 4 327 0 0 1 2 1 1 0.682
1378 183 4 328 3 3 2 1 1 2 0.776
1379 183 4 329 2 3 3 0 1 3 1.915
1380 183 4 330 2 2 2 2 1 2 1.032
1381 183 4 331 0 1 1 0 1 1 1.53
1382 183 4 332 0 0 1 1 1 1 0.69
1383 183 4 333 1 1 1 1 0 3 1.032
1384 183 4 334 0 2 1 0 0 2 1.078
1385 183 4 335 1 0 1 0 1 1 1.033
1386 183 4 336 3 2 3 0 0 2 1.579
1387 183 4 337 1 2 1 0 0 2 2.311
1388 183 4 338 3 3 0 1 1 0 0.719
1389 183 4 339 3 3 3 2 1 3 2.039
1390 183 4 340 2 2 3 2 1 3 0.735
1391 183 4 341 1 1 0 1 1 0 0.836
1392 183 4 342 1 1 0 2 1 0 0.784
1393 183 4 343 0 0 2 2 1 2 0.822
1394 183 4 344 0 0 2 1 1 2 0.743
1395 183 4 345 1 0 0 0 1 0 2.235
1396 183 4 346 2 2 3 2 1 3 1.796
1397 183 4 347 0 0 3 1 1 3 0.835
1398 183 4 348 1 1 2 1 1 2 1.355
1399 183 4 349 3 2 1 0 1 1 2.29
1400 183 4 350 2 2 3 1 1 3 0.878
1401 183 4 351 0 0 2 2 1 2 1.185
1402 183 4 352 1 1 0 1 1 0 0.733
1403 183 4 353 3 3 0 2 1 0 1.196
1404 183 4 354 2 2 1 2 1 1 0.931
1405 183 4 355 3 1 3 0 0 2 2.032
1406 183 4 356 1 1 3 1 1 3 1.465
1407 183 4 357 0 0 0 2 0 3 4.415
1408 183 4 358 0 0 3 2 1 3 0.862
1409 183 4 359 3 3 1 2 1 1 3.649
1410 183 4 360 0 0 2 2 1 2 0.88
1411 183 4 361 0 0 3 2 0 2 4.866
1412 183 4 362 1 2 1 0 1 1 1.646
1413 183 4 363 0 1 2 0 0 3 2.241
1414 183 4 364 3 3 0 1 0 3 2.724
1415 183 4 365 1 1 0 1 1 0 1.101
1416 183 4 366 1 1 2 1 1 2 1.004
1417 183 4 367 1 2 0 0 0 1 1.542
1418 183 4 368 1 1 1 2 0 2 1.789
1419 183 4 369 0 0 0 2 1 0 1.146
1420 183 4 370 1 1 2 1 1 2 1.544
1421 183 4 371 0 0 3 1 1 3 10.248
1422 183 4 372 3 3 3 1 1 3 0.983
1423 183 4 373 2 2 2 2 1 2 0.853
1424 183 4 374 3 2 0 0 0 2 1.389
1425 183 4 375 2 2 1 2 1 1 0.993
1426 183 4 376 3 3 1 1 1 1 0.971
1427 183 4 377 0 1 2 0 0 3 3.897
1428 183 4 378 1 2 3 0 1 3 1.68
1429 183 4 379 0 0 0 1 1 0 1.115
1430 183 4 380 0 0 0 1 1 0 1.145
1431 183 4 381 2 1 0 0 1 0 1.047
1432 183 4 382 2 1 3 0 1 3 1.241
1433 183 4 383 2 2 0 2 1 0 1.046
1434 183 4 384 3 3 2 1 1 2 1.071
1435 183 4 385 0 0 2 1 1 2 1.127
1436 183 4 386 3 0 1 0 0 2 5.998
1437 183 4 387 2 2 0 1 1 0 1.289
1438 183 4 388 2 3 0 0 0 2 2.121
1439 183 4 389 0 0 2 2 1 2 1.602
1440 183 4 390 1 1 2 1 0 1 1.727
1441 183 4 391 3 3 3 1 1 3 1.004
1442 183 4 392 0 0 0 1 1 0 1.199
1443 183 4 393 2 2 1 2 0 2 1.293
1444 183 4 394 3 0 1 0 0 0 1.257
1445 183 4 395 3 3 0 2 0 2 1.474
1446 183 4 396 3 3 3 1 1 3 0.951
1447 183 4 397 3 3 0 2 1 0 0.911
1448 183 4 398 1 1 2 1 0 1 2.069
1449 183 4 399 3 3 1 2 1 1 0.96
1450 183 5 400 1 2 2 0 1 2 1.635
1451 183 5 401 0 0 1 1 1 1 0.783
1452 183 5 402 2 2 3 2 1 3 1.004
1453 183 5 403 1 1 1 1 0 2 1.103
1454 183 5 404 1 2 2 0 1 2 1.241
1455 183 5 405 3 3 2 2 1 2 0.695
1456 183 5 406 3 3 3 1 1 3 0.812
1457 183 5 407 0 0 1 1 1 1 0.734
1458 183 5 408 2 0 2 0 0 0 1.258
1459 183 5 409 1 0 3 0 0 1 1.415
1460 183 5 410 2 2 3 2 1 3 0.77
1461 183 5 411 1 2 2 0 0 3 2.605
1462 183 5 412 0 0 3 1 1 3 0.754
1463 183 5 413 0 0 1 2 1 1 0.824
1464 183 5 414 2 2 2 2 1 2 1.733
1465 183 5 415 1 0 1 0 1 1 2.117
1466 183 5 416 1 2 2 0 1 2 2.664
1467 183 5 417 2 2 3 2 0 2 2.218
1468 183 5 418 3 3 3 2 0 2 3.528
1469 183 5 419 2 2 1 2 0 2 2.447
1470 183 5 420 1 1 2 1 1 2 0.761
1471 183 5 421 2 2 0 2 0 3 2.488
1472 183 5 422 3 3 0 2 0 2 2.124
1473 183 5 423 1 1 3 1 1 3 1.474
1474 183 5 424 2 2 3 1 1 3 0.988
1475 183 5 425 0 0 2 2 1 2 1.355
1476 183 5 426 0 0 1 2 1 1 0.956
1477 183 5 427 0 0 3 2 0 0 1.387
1478 183 5 428 0 0 1 2 1 1 8.695
1479 183 5 429 3 0 0 0 1 0 11.406
1480 183 5 430 3 1 2 0 0 1 2.876
1481 183 5 431 3 3 0 2 0 2 1.05
1482 183 5 432 2 2 1 1 1 1 0.711
1483 183 5 433 0 0 0 1 1 0 0.716
1484 183 5 434 1 1 2 1 1 2 1.049
1485 183 5 435 2 1 2 0 1 2 1.282
1486 183 5 436 1 1 3 2 1 3 0.917
1487 183 5 437 2 3 3 0 0 1 1.683
1488 183 5 438 3 3 3 2 0 2 1.044
1489 183 5 439 1 2 0 0 1 0 1.113
1490 183 5 440 0 0 2 2 1 2 0.858
1491 183 5 441 3 3 1 1 1 1 1.338
1492 183 5 442 1 0 2 0 0 1 3.537
1493 183 5 443 2 2 1 2 0 2 2.831
1494 183 5 444 1 1 2 2 0 1 1.487
1495 183 5 445 0 0 0 1 1 0 0.676
1496 183 5 446 0 1 1 0 0 2 3.034
1497 183 5 447 0 0 2 1 1 2 1.424
1498 183 5 448 0 0 3 2 1 3 0.839
1499 183 5 449 2 1 3 0 0 1 3.016
1500 183 5 450 3 3 2 2 0 3 3.089
1501 183 5 451 2 2 1 2 0 2 1.471
1502 183 5 452 3 3 2 1 0 3 2.133
1503 183 5 453 3 3 1 2 1 1 0.949
1504 183 5 454 0 1 0 0 0 2 2.675
1505 183 5 455 2 2 0 1 1 0 1.125
1506 183 5 456 3 3 1 2 1 1 0.831
1507 183 5 457 2 2 0 2 0 2 3.259
1508 183 5 458 2 2 2 1 1 2 0.88
1509 183 5 459 2 2 1 2 0 2 1.067
1510 183 5 460 3 3 1 1 1 1 0.967
1511 183 5 461 0 0 2 1 1 2 2.091
1512 183 5 462 0 0 0 1 1 0 0.839
1513 183 5 463 3 0 0 0 1 0 1.504
1514 183 5 464 2 2 3 1 1 3 1.224
1515 183 5 465 2 2 1 2 0 3 1.598
1516 183 5 466 2 2 0 1 1 0 0.815
1517 183 5 467 3 3 0 1 0 2 1.134
1518 183 5 468 1 1 3 1 1 3 1.216
1519 183 5 469 2 2 0 2 0 3 1.51
1520 183 5 470 0 2 1 0 0 2 4.466
1521 183 5 471 1 1 3 2 1 3 1.831
1522 183 5 472 0 2 2 0 0 3 20.78
1523 183 5 473 0 0 2 1 1 2 0.838
1524 183 5 474 1 0 3 0 0 0 1.374
1525 183 5 475 1 2 1 0 1 1 2.407
1526 183 5 476 1 1 0 1 1 0 1.216
1527 183 5 477 1 0 0 0 0 1 1.571
1528 183 5 478 0 0 3 1 1 3 0.925
1529 183 5 479 2 2 3 2 1 3 1.022
