datID sessionID block trial WordInt ColorInt TrueInt Cong Correct Response rt
1 286 0 0 1 2 3 0 0 2 1.583
2 286 0 1 2 2 0 1 1 0 0.706
3 286 0 2 1 1 1 1 1 1 0.592
4 286 0 3 3 3 3 2 1 3 1.008
5 286 0 4 0 1 3 0 0 1 2.554
6 286 0 5 1 1 2 2 1 2 0.799
7 286 0 6 3 3 2 2 1 2 0.936
8 286 0 7 2 2 3 1 1 3 0.878
9 286 0 8 1 1 2 1 1 2 1.438
10 286 0 9 2 2 3 1 1 3 0.85
11 286 0 10 3 3 0 1 1 0 0.732
12 286 0 11 1 1 0 1 1 0 0.689
13 286 0 12 0 0 2 1 1 2 0.791
14 286 0 13 3 3 0 1 1 0 0.61
15 286 0 14 2 2 0 1 1 0 0.628
16 286 0 15 2 2 0 2 1 0 0.763
17 286 0 16 3 0 0 0 0 1 1.622
18 286 0 17 1 0 2 0 0 1 1.952
19 286 0 18 2 2 3 1 1 3 0.877
20 286 0 19 3 2 2 0 0 1 1.277
21 286 0 20 2 1 3 0 1 3 1
22 286 0 21 3 3 3 2 0 1 1.298
23 286 0 22 3 3 0 2 1 0 1.605
24 286 0 23 2 1 2 0 1 2 0.851
25 286 0 24 3 3 2 1 1 2 0.748
26 286 0 25 2 2 2 1 1 2 0.706
27 286 0 26 2 2 0 2 0 1 1.27
28 286 0 27 2 2 1 1 1 1 0.596
29 286 0 28 2 0 3 0 1 3 0.775
30 286 0 29 3 3 1 2 1 1 0.729
31 286 0 30 0 0 2 1 1 2 0.614
32 286 0 31 1 1 1 1 1 1 0.584
33 286 0 32 2 2 2 2 1 2 0.673
34 286 0 33 2 1 2 0 1 2 0.585
35 286 0 34 0 2 0 0 0 1 0.835
36 286 0 35 2 2 0 2 1 0 0.999
37 286 0 36 1 1 2 2 1 2 1.272
38 286 0 37 0 1 1 0 1 1 0.859
39 286 0 38 1 1 1 2 1 1 0.746
40 286 0 39 0 0 1 2 1 1 0.941
41 286 0 40 3 3 0 2 1 0 0.649
42 286 0 41 2 2 1 2 0 2 1.184
43 286 0 42 3 3 1 1 1 1 0.656
44 286 0 43 3 0 1 0 1 1 1.137
45 286 0 44 2 2 1 2 1 1 0.726
46 286 0 45 3 2 2 0 0 1 0.996
47 286 0 46 1 1 3 1 0 0 1.268
48 286 0 47 2 3 1 0 0 2 1.258
49 286 0 48 0 0 0 1 1 0 0.72
50 286 0 49 1 2 0 0 1 0 0.822
51 286 0 50 1 1 0 1 1 0 0.648
52 286 0 51 3 3 1 2 0 3 1.199
53 286 0 52 0 0 1 2 1 1 0.779
54 286 0 53 0 0 2 2 1 2 0.717
55 286 0 54 2 2 1 1 1 1 0.747
56 286 0 55 1 1 0 1 1 0 0.736
57 286 0 56 2 2 2 1 1 2 0.758
58 286 0 57 2 2 3 1 1 3 0.746
59 286 0 58 0 0 0 1 1 0 0.672
60 286 0 59 0 0 2 2 1 2 0.749
61 286 0 60 1 1 3 2 1 3 0.728
62 286 0 61 1 0 3 0 1 3 1.822
63 286 0 62 3 3 1 2 0 3 1.936
64 286 0 63 3 3 0 2 0 2 1.444
65 286 0 64 0 0 3 1 1 3 0.804
66 286 0 65 0 0 2 1 1 2 0.839
67 286 0 66 2 2 3 2 1 3 0.791
68 286 0 67 1 1 0 1 1 0 0.642
69 286 0 68 2 3 2 0 0 1 1.931
70 286 0 69 0 0 3 1 1 3 0.722
71 286 0 70 0 0 0 1 1 0 0.791
72 286 0 71 3 0 0 0 1 0 1.299
73 286 0 72 3 3 3 2 0 2 1.386
74 286 0 73 2 2 3 1 1 3 0.795
75 286 0 74 0 1 0 0 1 0 0.774
76 286 0 75 0 0 0 2 1 0 0.64
77 286 0 76 3 3 3 2 1 3 0.831
78 286 0 77 0 0 3 1 1 3 0.696
79 286 0 78 2 2 3 1 1 3 0.712
80 286 0 79 0 0 0 2 1 0 1.044
81 286 1 80 0 1 0 0 0 2 2.327
82 286 1 81 0 0 0 1 1 0 1.03
83 286 1 82 3 0 2 0 0 0 1.289
84 286 1 83 1 1 0 2 0 1 0.701
85 286 1 84 2 2 0 1 1 0 0.791
86 286 1 85 2 2 2 1 1 2 0.683
87 286 1 86 3 1 2 0 1 2 1.314
88 286 1 87 2 2 0 2 0 2 1.208
89 286 1 88 0 0 1 1 1 1 0.537
90 286 1 89 3 3 3 1 1 3 0.789
91 286 1 90 3 3 1 1 1 1 0.929
92 286 1 91 2 1 0 0 1 0 0.672
93 286 1 92 1 1 0 1 1 0 0.679
94 286 1 93 2 3 3 0 1 3 0.791
95 286 1 94 1 1 1 1 1 1 0.731
96 286 1 95 3 3 3 1 1 3 0.752
97 286 1 96 3 3 0 2 0 3 0.795
98 286 1 97 0 0 3 2 1 3 0.824
99 286 1 98 0 2 1 0 0 0 1.37
100 286 1 99 2 2 0 2 1 0 1.066
101 286 1 100 1 1 3 2 1 3 1.33
102 286 1 101 2 2 3 2 0 2 1.168
103 286 1 102 0 0 3 2 1 3 1.008
104 286 1 103 1 1 1 1 1 1 0.708
105 286 1 104 3 2 3 0 0 2 1.45
106 286 1 105 0 1 0 0 0 1 1.153
107 286 1 106 3 1 2 0 1 2 0.915
108 286 1 107 1 1 3 1 1 3 0.715
109 286 1 108 0 2 3 0 1 3 0.697
110 286 1 109 3 3 2 1 1 2 0.801
111 286 1 110 3 1 0 0 1 0 0.844
112 286 1 111 1 2 3 0 1 3 0.685
113 286 1 112 3 3 2 2 1 2 0.722
114 286 1 113 2 2 3 1 1 3 0.848
115 286 1 114 1 1 3 2 1 3 0.808
116 286 1 115 3 3 0 2 1 0 0.713
117 286 1 116 0 0 2 2 1 2 0.821
118 286 1 117 2 3 2 0 0 3 1.232
119 286 1 118 1 1 3 2 1 3 0.685
120 286 1 119 1 2 0 0 1 0 0.908
121 286 1 120 2 3 1 0 0 2 1.132
122 286 1 121 2 2 1 2 0 2 1.013
123 286 1 122 2 2 0 1 1 0 0.77
124 286 1 123 1 2 0 0 1 0 1.11
125 286 1 124 3 3 0 1 1 0 0.566
126 286 1 125 3 0 0 0 0 1 1.017
127 286 1 126 2 2 3 1 1 3 0.776
128 286 1 127 2 2 0 1 1 0 0.644
129 286 1 128 3 2 2 0 1 2 0.757
130 286 1 129 2 2 3 2 1 3 0.8
131 286 1 130 1 0 1 0 0 3 1.635
132 286 1 131 2 2 3 2 0 1 1.274
133 286 1 132 1 2 2 0 1 2 0.968
134 286 1 133 2 1 0 0 0 3 1.173
135 286 1 134 3 3 3 1 1 3 0.83
136 286 1 135 1 1 1 2 0 2 1.542
137 286 1 136 1 1 0 2 0 2 1.912
138 286 1 137 2 2 3 2 0 0 8.165
139 286 1 138 0 0 2 1 0 0 1.116
140 286 1 139 3 0 0 0 1 0 0.36
141 286 1 140 0 0 2 2 1 2 1.257
142 286 1 141 3 3 2 1 1 2 0.572
143 286 1 142 3 3 1 1 1 1 0.727
144 286 1 143 0 0 2 2 1 2 1.106
145 286 1 144 1 1 1 2 1 1 0.937
146 286 1 145 0 1 1 0 1 1 0.551
147 286 1 146 2 2 3 1 1 3 0.923
148 286 1 147 0 0 0 2 1 0 0.88
149 286 1 148 0 0 0 2 1 0 0.775
150 286 1 149 0 0 0 2 1 0 0.817
151 286 1 150 2 2 0 1 1 0 0.699
152 286 1 151 1 1 1 1 1 1 0.677
153 286 1 152 2 2 2 2 1 2 0.827
154 286 1 153 0 0 3 2 1 3 0.763
155 286 1 154 0 0 2 2 1 2 0.837
156 286 1 155 3 3 3 1 1 3 0.91
157 286 1 156 3 2 2 0 1 2 1.437
158 286 1 157 2 2 2 1 1 2 0.705
159 286 1 158 2 1 2 0 1 2 0.72
160 286 1 159 1 1 3 1 1 3 0.742
161 286 2 160 0 0 2 2 1 2 0.847
162 286 2 161 0 0 2 1 1 2 0.681
163 286 2 162 2 2 2 2 1 2 0.694
164 286 2 163 3 2 1 0 1 1 0.949
165 286 2 164 3 0 3 0 0 1 0.756
166 286 2 165 1 1 0 2 1 0 0.97
167 286 2 166 2 0 3 0 1 3 1.175
168 286 2 167 3 3 0 1 1 0 0.788
169 286 2 168 3 3 1 2 1 1 0.854
170 286 2 169 1 1 2 1 1 2 0.727
171 286 2 170 0 1 0 0 0 2 1.493
172 286 2 171 3 3 1 1 1 1 1.155
173 286 2 172 3 3 0 2 1 0 0.871
174 286 2 173 0 0 0 1 1 0 0.671
175 286 2 174 3 3 2 1 1 2 0.759
176 286 2 175 2 2 0 1 1 0 0.62
177 286 2 176 0 1 0 0 1 0 0.741
178 286 2 177 2 2 1 2 1 1 1.017
179 286 2 178 1 1 1 2 1 1 0.722
180 286 2 179 1 1 2 1 1 2 0.664
181 286 2 180 0 1 1 0 1 1 0.696
182 286 2 181 2 2 0 2 1 0 0.709
183 286 2 182 1 1 3 2 0 2 1.25
184 286 2 183 1 1 0 1 1 0 0.528
185 286 2 184 2 2 3 2 1 3 1.163
186 286 2 185 2 2 1 1 1 1 0.65
187 286 2 186 1 1 1 2 1 1 0.903
188 286 2 187 2 2 0 1 1 0 0.631
189 286 2 188 0 0 0 1 1 0 0.648
190 286 2 189 1 1 2 1 1 2 0.753
191 286 2 190 3 3 0 2 1 0 0.716
192 286 2 191 3 3 3 2 0 0 0.76
193 286 2 192 1 1 2 2 0 1 1.127
194 286 2 193 0 1 3 0 1 3 0.89
195 286 2 194 0 0 3 2 1 3 0.848
196 286 2 195 3 3 3 1 1 3 0.913
197 286 2 196 3 3 3 1 1 3 0.664
198 286 2 197 0 1 1 0 1 1 0.897
199 286 2 198 0 0 3 2 1 3 0.855
200 286 2 199 3 3 3 1 1 3 0.856
201 286 2 200 3 0 3 0 1 3 0.721
202 286 2 201 3 2 1 0 1 1 0.799
203 286 2 202 2 1 3 0 1 3 0.746
204 286 2 203 2 2 3 1 1 3 0.639
205 286 2 204 0 0 2 2 1 2 0.758
206 286 2 205 2 0 2 0 1 2 1.298
207 286 2 206 1 1 3 2 1 3 0.858
208 286 2 207 3 1 1 0 1 1 0.883
209 286 2 208 2 2 3 1 1 3 1.043
210 286 2 209 3 3 0 1 1 0 0.726
211 286 2 210 3 3 1 2 1 1 0.698
212 286 2 211 3 2 2 0 1 2 0.953
213 286 2 212 0 1 2 0 1 2 1.43
214 286 2 213 2 0 1 0 1 1 1.011
215 286 2 214 0 0 2 2 1 2 0.685
216 286 2 215 0 0 3 2 1 3 0.722
217 286 2 216 0 0 1 1 1 1 0.924
218 286 2 217 1 1 3 1 1 3 0.827
219 286 2 218 1 0 1 0 1 1 1.045
220 286 2 219 2 2 1 1 1 1 0.688
221 286 2 220 2 2 2 2 1 2 0.677
222 286 2 221 3 2 0 0 0 1 1.124
223 286 2 222 0 1 3 0 1 3 1.48
224 286 2 223 1 1 2 1 1 2 0.634
225 286 2 224 0 0 2 1 1 2 0.572
226 286 2 225 3 3 2 2 1 2 0.565
227 286 2 226 3 1 3 0 0 2 2.321
228 286 2 227 3 3 1 1 1 1 0.689
229 286 2 228 2 1 2 0 0 1 1.13
230 286 2 229 3 3 0 2 0 1 0.825
231 286 2 230 1 1 1 2 0 2 0.589
232 286 2 231 1 1 2 1 0 1 0.771
233 286 2 232 1 1 1 2 1 1 0.601
234 286 2 233 2 2 1 1 1 1 0.492
235 286 2 234 0 1 1 0 0 2 1.066
236 286 2 235 2 2 3 2 1 3 1.006
237 286 2 236 0 0 1 1 1 1 0.713
238 286 2 237 2 0 1 0 0 2 2.345
239 286 2 238 0 1 2 0 1 2 0.873
240 286 2 239 3 3 3 1 1 3 1.137
241 286 3 240 0 0 0 2 1 0 1.016
242 286 3 241 1 1 1 2 1 1 0.745
243 286 3 242 3 3 3 2 1 3 0.78
244 286 3 243 0 0 3 1 1 3 0.864
245 286 3 244 3 1 3 0 1 3 0.632
246 286 3 245 3 0 0 0 0 1 1.241
247 286 3 246 2 2 0 1 1 0 0.536
248 286 3 247 0 2 3 0 1 3 0.901
249 286 3 248 2 1 1 0 1 1 0.884
250 286 3 249 3 3 1 2 1 1 0.826
251 286 3 250 0 1 0 0 1 0 0.764
252 286 3 251 1 2 1 0 1 1 0.793
253 286 3 252 0 2 1 0 1 1 1.084
254 286 3 253 3 1 1 0 0 2 0.902
255 286 3 254 2 2 3 1 1 3 1.105
256 286 3 255 0 0 1 2 1 1 0.887
257 286 3 256 2 3 1 0 0 3 1.711
258 286 3 257 0 2 1 0 1 1 1.077
259 286 3 258 3 3 3 2 1 3 0.884
260 286 3 259 2 1 3 0 1 3 0.772
261 286 3 260 0 1 0 0 0 3 1.136
262 286 3 261 0 0 2 1 1 2 0.739
263 286 3 262 3 3 1 1 0 2 0.856
264 286 3 263 2 2 1 1 1 1 0.621
265 286 3 264 0 0 0 2 1 0 0.82
266 286 3 265 2 2 0 2 0 1 0.861
267 286 3 266 1 1 2 2 0 3 1.111
268 286 3 267 1 1 0 1 1 0 0.635
269 286 3 268 2 2 0 1 1 0 0.428
270 286 3 269 2 2 2 2 1 2 1.011
271 286 3 270 3 1 1 0 0 2 1.151
272 286 3 271 0 1 3 0 1 3 0.769
273 286 3 272 0 0 2 2 1 2 0.675
274 286 3 273 1 2 0 0 1 0 0.29
275 286 3 274 0 2 3 0 1 3 1.008
276 286 3 275 2 0 1 0 1 1 0.836
277 286 3 276 1 1 3 1 1 3 0.662
278 286 3 277 3 3 3 1 1 3 0.846
279 286 3 278 2 2 0 2 0 1 1.149
280 286 3 279 3 3 1 2 1 1 0.877
281 286 3 280 2 2 1 2 1 1 0.636
282 286 3 281 2 1 3 0 1 3 0.797
283 286 3 282 3 3 1 2 1 1 0.79
284 286 3 283 2 3 2 0 1 2 0.874
285 286 3 284 0 0 2 2 1 2 0.849
286 286 3 285 0 0 0 2 1 0 0.816
287 286 3 286 1 2 2 0 1 2 0.843
288 286 3 287 3 3 1 2 1 1 0.834
289 286 3 288 2 2 1 2 1 1 0.762
290 286 3 289 1 2 0 0 1 0 0.687
291 286 3 290 3 1 1 0 0 3 1.118
292 286 3 291 0 0 2 2 1 2 0.847
293 286 3 292 2 1 0 0 1 0 0.905
294 286 3 293 1 1 3 1 1 3 0.808
295 286 3 294 0 0 0 1 1 0 0.675
296 286 3 295 1 1 3 2 1 3 0.873
297 286 3 296 0 0 3 1 1 3 0.69
298 286 3 297 1 1 0 2 0 3 0.983
299 286 3 298 0 0 1 1 1 1 0.871
300 286 3 299 1 1 1 2 1 1 0.805
301 286 3 300 2 1 3 0 1 3 0.808
302 286 3 301 2 1 0 0 1 0 0.707
303 286 3 302 1 0 2 0 1 2 0.65
304 286 3 303 1 1 3 2 1 3 1.008
305 286 3 304 0 1 2 0 1 2 0.74
306 286 3 305 0 0 2 2 1 2 0.927
307 286 3 306 2 3 3 0 1 3 0.822
308 286 3 307 2 2 2 1 1 2 0.712
309 286 3 308 2 0 2 0 1 2 0.759
310 286 3 309 0 1 0 0 1 0 0.788
311 286 3 310 3 1 3 0 1 3 0.839
312 286 3 311 3 3 3 1 1 3 0.881
313 286 3 312 3 3 2 2 1 2 0.808
314 286 3 313 1 1 3 2 1 3 0.784
315 286 3 314 1 2 3 0 0 1 1.452
316 286 3 315 2 2 2 1 1 2 1.163
317 286 3 316 2 1 3 0 1 3 0.714
318 286 3 317 2 2 0 1 1 0 0.752
319 286 3 318 2 2 2 2 1 2 0.875
320 286 3 319 2 0 2 0 0 1 1.148
321 286 4 320 2 2 2 1 1 2 0.946
322 286 4 321 3 3 3 2 0 1 0.998
323 286 4 322 0 0 0 1 1 0 0.574
324 286 4 323 1 1 0 1 1 0 3.314
325 286 4 324 3 2 2 0 1 2 3.163
326 286 4 325 1 1 3 1 1 3 0.761
327 286 4 326 3 2 2 0 1 2 1.278
328 286 4 327 1 1 1 1 1 1 0.92
329 286 4 328 1 2 0 0 1 0 0.815
330 286 4 329 1 0 0 0 1 0 0.57
331 286 4 330 1 2 3 0 1 3 0.837
332 286 4 331 0 0 2 1 1 2 0.743
333 286 4 332 1 1 0 1 1 0 0.669
334 286 4 333 2 2 1 1 1 1 0.769
335 286 4 334 2 3 0 0 0 3 1.173
336 286 4 335 2 2 1 1 1 1 0.559
337 286 4 336 3 3 2 2 1 2 0.776
338 286 4 337 1 1 3 2 1 3 0.811
339 286 4 338 3 2 3 0 1 3 1.022
340 286 4 339 0 2 0 0 1 0 0.721
341 286 4 340 0 0 2 1 1 2 0.711
342 286 4 341 3 3 0 2 0 1 1.299
343 286 4 342 3 3 0 2 1 0 0.822
344 286 4 343 0 0 2 2 1 2 0.83
345 286 4 344 3 2 3 0 0 2 1.496
346 286 4 345 0 0 0 2 1 0 0.725
347 286 4 346 0 0 3 1 1 3 0.914
348 286 4 347 3 3 2 2 0 3 0.935
349 286 4 348 1 1 2 2 1 2 0.943
350 286 4 349 1 1 1 1 1 1 0.597
351 286 4 350 3 3 1 2 1 1 0.502
352 286 4 351 2 2 2 2 1 2 0.866
353 286 4 352 2 2 2 1 1 2 0.642
354 286 4 353 2 2 3 1 1 3 1.019
355 286 4 354 3 3 0 1 0 3 0.878
356 286 4 355 1 0 2 0 0 1 1.026
357 286 4 356 2 2 2 1 1 2 0.785
358 286 4 357 1 1 2 1 1 2 0.405
359 286 4 358 3 3 1 1 1 1 0.67
360 286 4 359 2 2 2 1 1 2 0.526
361 286 4 360 3 1 3 0 0 1 1.235
362 286 4 361 2 2 2 1 1 2 0.49
363 286 4 362 3 2 0 0 0 2 0.744
364 286 4 363 2 2 0 2 1 0 0.615
365 286 4 364 1 1 0 1 1 0 0.521
366 286 4 365 2 2 0 2 1 0 0.828
367 286 4 366 3 3 3 2 1 3 1.252
368 286 4 367 1 1 0 2 1 0 0.533
369 286 4 368 1 1 0 1 1 0 0.338
370 286 4 369 0 0 0 1 1 0 0.358
371 286 4 370 1 1 0 1 1 0 0.313
372 286 4 371 0 0 0 1 1 0 0.309
373 286 4 372 3 2 3 0 0 2 1.234
374 286 4 373 3 3 0 2 1 0 0.478
375 286 4 374 1 1 3 1 0 2 0.493
376 286 4 375 3 1 0 0 1 0 0.847
377 286 4 376 3 3 3 2 0 1 0.964
378 286 4 377 2 0 0 0 1 0 0.653
379 286 4 378 2 2 3 1 1 3 0.966
380 286 4 379 0 0 3 2 1 3 0.609
381 286 4 380 0 0 1 2 1 1 1.057
382 286 4 381 2 2 2 1 1 2 0.667
383 286 4 382 2 0 3 0 1 3 1.258
384 286 4 383 3 3 0 1 1 0 0.845
385 286 4 384 2 2 3 1 1 3 0.775
386 286 4 385 0 2 1 0 1 1 1.283
387 286 4 386 3 3 2 2 1 2 1.347
388 286 4 387 2 2 0 1 1 0 0.763
389 286 4 388 1 1 1 1 1 1 0.768
390 286 4 389 0 0 0 1 1 0 0.708
391 286 4 390 0 1 0 0 1 0 0.81
392 286 4 391 0 0 2 2 1 2 1.051
393 286 4 392 1 1 3 1 1 3 0.869
394 286 4 393 1 1 3 2 1 3 0.716
395 286 4 394 1 1 3 2 1 3 0.68
396 286 4 395 3 3 0 2 0 2 1.07
397 286 4 396 3 3 2 2 1 2 0.752
398 286 4 397 0 0 0 2 1 0 0.763
399 286 4 398 0 0 3 2 0 0 0.934
400 286 4 399 1 2 1 0 1 1 0.976
401 286 5 400 1 1 3 1 1 3 0.914
402 286 5 401 3 3 1 1 1 1 0.8
403 286 5 402 3 3 2 2 1 2 0.801
404 286 5 403 0 0 1 1 1 1 0.588
405 286 5 404 3 0 3 0 1 3 0.727
406 286 5 405 2 2 1 2 1 1 0.643
407 286 5 406 2 2 2 1 1 2 0.588
408 286 5 407 0 2 3 0 1 3 0.742
409 286 5 408 0 0 3 1 1 3 0.628
410 286 5 409 2 2 3 2 1 3 0.755
411 286 5 410 3 3 1 1 1 1 1.016
412 286 5 411 0 0 0 2 1 0 0.819
413 286 5 412 3 3 1 1 1 1 0.805
414 286 5 413 1 2 1 0 1 1 0.888
415 286 5 414 2 0 2 0 1 2 0.76
416 286 5 415 0 0 0 1 1 0 0.509
417 286 5 416 3 3 1 1 1 1 0.763
418 286 5 417 2 3 3 0 0 2 1.343
419 286 5 418 1 2 1 0 1 1 0.979
420 286 5 419 1 1 2 2 1 2 0.949
421 286 5 420 3 3 0 1 1 0 1.068
422 286 5 421 3 3 1 1 1 1 0.741
423 286 5 422 3 2 2 0 1 2 0.594
424 286 5 423 1 1 2 2 0 3 1.203
425 286 5 424 0 0 1 2 1 1 0.617
426 286 5 425 0 1 1 0 1 1 0.81
427 286 5 426 2 2 3 2 1 3 0.85
428 286 5 427 2 2 2 2 1 2 0.666
429 286 5 428 3 0 0 0 0 2 1.009
430 286 5 429 2 2 0 2 1 0 0.566
431 286 5 430 3 3 2 1 1 2 0.626
432 286 5 431 1 1 0 2 1 0 0.545
433 286 5 432 3 3 1 2 1 1 0.988
434 286 5 433 1 2 3 0 1 3 0.672
435 286 5 434 3 3 0 2 0 2 1.03
436 286 5 435 0 0 2 1 1 2 0.701
437 286 5 436 1 2 2 0 1 2 0.555
438 286 5 437 0 1 3 0 1 3 0.663
439 286 5 438 1 2 3 0 1 3 0.744
440 286 5 439 1 1 3 1 1 3 0.573
441 286 5 440 3 3 0 1 1 0 0.696
442 286 5 441 1 1 0 2 0 1 1.221
443 286 5 442 2 2 2 2 1 2 0.651
444 286 5 443 3 3 0 1 0 1 1.26
445 286 5 444 2 2 3 2 1 3 0.784
446 286 5 445 2 2 3 1 1 3 0.628
447 286 5 446 1 2 0 0 1 0 0.65
448 286 5 447 0 0 0 1 1 0 0.659
449 286 5 448 1 1 0 2 1 0 0.729
450 286 5 449 2 2 1 2 1 1 0.597
451 286 5 450 0 0 1 1 1 1 0.695
452 286 5 451 2 1 1 0 1 1 1.086
453 286 5 452 2 2 0 2 1 0 0.581
454 286 5 453 2 0 1 0 1 1 0.96
455 286 5 454 1 1 1 2 0 2 1.164
456 286 5 455 1 1 2 2 1 2 0.755
457 286 5 456 3 3 0 2 0 3 1.55
458 286 5 457 1 0 3 0 1 3 0.73
459 286 5 458 1 1 1 2 0 2 1.045
460 286 5 459 1 1 2 1 1 2 0.619
461 286 5 460 2 3 1 0 1 1 0.765
462 286 5 461 3 3 0 1 1 0 0.561
463 286 5 462 2 2 2 1 1 2 0.565
464 286 5 463 2 2 3 1 1 3 0.713
465 286 5 464 0 0 0 2 1 0 0.669
466 286 5 465 2 1 0 0 1 0 0.693
467 286 5 466 2 2 3 1 1 3 1.02
468 286 5 467 1 1 2 1 1 2 0.695
469 286 5 468 2 3 0 0 1 0 0.581
470 286 5 469 1 1 1 2 1 1 0.71
471 286 5 470 2 2 1 2 1 1 0.711
472 286 5 471 0 0 2 2 1 2 0.827
473 286 5 472 1 1 2 2 1 2 0.748
474 286 5 473 0 0 3 1 1 3 0.753
475 286 5 474 1 2 2 0 1 2 0.75
476 286 5 475 0 1 3 0 1 3 0.85
477 286 5 476 2 2 2 1 1 2 0.691
478 286 5 477 1 1 0 2 1 0 0.752
479 286 5 478 0 1 1 0 1 1 0.597
480 286 5 479 1 1 3 2 0 2 0.646
481 288 0 0 3 1 2 0 1 2 1.95
482 288 0 1 2 2 1 1 1 1 0.992
483 288 0 2 2 2 2 2 1 2 0.674
484 288 0 3 2 2 0 2 1 0 0.704
485 288 0 4 3 2 0 0 0 2 1.374
486 288 0 5 0 2 2 0 0 1 1.536
487 288 0 6 3 3 0 2 0 1 1.075
488 288 0 7 3 3 2 1 1 2 0.704
489 288 0 8 2 0 3 0 0 1 2.814
490 288 0 9 1 1 3 2 1 3 1.658
491 288 0 10 3 3 3 1 1 3 1.247
492 288 0 11 3 3 0 2 0 3 1.193
493 288 0 12 1 1 0 1 0 1 1.321
494 288 0 13 1 1 1 2 1 1 0.675
495 288 0 14 2 3 1 0 0 0 0.955
496 288 0 15 3 3 1 2 1 1 0.696
497 288 0 16 0 0 0 1 1 0 0.968
498 288 0 17 3 3 3 1 1 3 0.885
499 288 0 18 1 1 0 1 0 1 1.165
500 288 0 19 0 2 3 0 0 1 0.871
501 288 0 20 3 3 2 2 0 3 1.057
502 288 0 21 0 0 2 2 0 1 1.341
503 288 0 22 2 0 1 0 0 3 3.592
504 288 0 23 3 3 0 1 1 0 0.603
505 288 0 24 3 3 3 1 0 0 0.853
506 288 0 25 3 3 2 2 1 2 0.656
507 288 0 26 1 2 2 0 1 2 1.2
508 288 0 27 2 1 3 0 2 -1 6.741
509 288 0 28 0 0 0 1 1 0 1.41
510 288 0 29 1 1 0 1 0 3 2.615
511 288 0 30 0 0 1 2 0 3 1.371
512 288 0 31 3 3 0 1 0 2 2.053
513 288 0 32 1 1 2 1 0 1 0.734
514 288 0 33 3 3 2 1 1 2 0.647
515 288 0 34 1 1 2 2 0 3 9.494
516 288 0 35 1 1 0 2 0 2 1.14
517 288 0 36 3 3 2 1 1 2 0.751
518 288 0 37 0 0 0 1 1 0 0.468
519 288 0 38 2 3 0 0 0 2 0.827
520 288 0 39 3 3 2 1 1 2 0.553
521 288 0 40 3 3 2 2 1 2 0.33
522 288 0 41 0 0 0 2 1 0 0.317
523 288 0 42 1 1 0 1 1 0 0.513
524 288 0 43 2 2 2 1 0 1 0.903
525 288 0 44 3 3 2 2 0 1 1.264
526 288 0 45 1 1 0 1 1 0 0.574
527 288 0 46 2 2 1 2 0 3 2.223
528 288 0 47 2 2 1 1 1 1 0.603
529 288 0 48 1 1 0 2 1 0 0.532
530 288 0 49 3 3 2 2 0 0 0.446
531 288 0 50 3 1 3 0 0 2 3.097
532 288 0 51 2 3 3 0 2 -1 3.718
533 288 0 52 2 2 0 2 1 0 0.92
534 288 0 53 2 2 0 1 1 0 0.751
535 288 0 54 3 3 1 1 0 0 1.444
536 288 0 55 0 0 2 2 1 2 1.017
537 288 0 56 1 1 0 1 0 2 1.612
538 288 0 57 1 1 0 1 1 0 2.286
539 288 0 58 1 1 2 1 1 2 0.692
540 288 0 59 3 3 3 2 0 2 1.185
541 288 0 60 3 3 0 1 1 0 0.426
542 288 0 61 2 2 2 2 0 0 0.68
543 288 0 62 2 1 2 0 1 2 0.86
544 288 0 63 3 2 3 0 0 1 0.877
545 288 0 64 3 3 2 1 1 2 1.281
546 288 0 65 0 1 0 0 0 2 0.507
547 288 0 66 3 3 1 2 0 2 0.842
548 288 0 67 3 3 3 1 1 3 0.903
549 288 0 68 2 2 3 2 1 3 1.325
550 288 0 69 0 2 2 0 1 2 0.733
551 288 0 70 0 0 0 1 1 0 0.411
552 288 0 71 1 2 3 0 1 3 2.076
553 288 0 72 3 3 3 1 1 3 0.538
554 288 0 73 1 1 0 1 1 0 1.479
555 288 0 74 2 2 3 1 0 2 1.537
556 288 0 75 1 1 1 2 1 1 0.676
557 288 0 76 0 0 2 2 1 2 0.545
558 288 0 77 2 2 2 1 1 2 0.646
559 288 0 78 1 1 1 2 1 1 0.54
560 288 0 79 3 1 2 0 1 2 1.865
561 288 1 80 2 2 1 1 1 1 1.874
562 288 1 81 3 3 1 1 1 1 0.599
563 288 1 82 1 2 1 0 1 1 1.514
564 288 1 83 2 2 3 1 1 3 0.652
565 288 1 84 2 0 3 0 0 0 1.124
566 288 1 85 0 2 2 0 0 1 1.136
567 288 1 86 3 3 0 2 0 3 0.824
568 288 1 87 1 1 2 2 1 2 0.628
569 288 1 88 0 0 0 2 1 0 1.212
570 288 1 89 1 2 2 0 0 1 1.008
571 288 1 90 3 3 1 1 1 1 0.576
572 288 1 91 1 0 0 0 1 0 1.723
573 288 1 92 0 0 1 2 0 0 0.611
574 288 1 93 3 3 3 1 1 3 0.665
575 288 1 94 1 1 0 1 0 1 1.129
576 288 1 95 1 1 0 2 1 0 0.482
577 288 1 96 3 0 1 0 1 1 1.392
578 288 1 97 0 0 3 1 1 3 0.718
579 288 1 98 2 1 1 0 0 3 1.756
580 288 1 99 0 2 0 0 0 1 1.825
581 288 1 100 2 2 0 1 1 0 0.731
582 288 1 101 3 2 0 0 1 0 0.337
583 288 1 102 3 2 0 0 1 0 0.757
584 288 1 103 1 1 1 2 1 1 0.551
585 288 1 104 3 3 3 1 1 3 0.855
586 288 1 105 1 1 1 1 1 1 1.68
587 288 1 106 1 1 3 2 1 3 0.586
588 288 1 107 2 2 0 2 0 1 1.066
589 288 1 108 1 1 1 1 1 1 1.008
590 288 1 109 0 0 1 2 0 0 0.69
591 288 1 110 0 0 0 2 1 0 0.426
592 288 1 111 2 0 1 0 0 0 1.331
593 288 1 112 0 2 0 0 0 1 1.647
594 288 1 113 1 1 2 2 1 2 0.613
595 288 1 114 2 2 3 2 1 3 0.749
596 288 1 115 1 1 0 2 0 1 1.008
597 288 1 116 2 2 2 2 0 1 0.957
598 288 1 117 2 3 0 0 0 1 1.895
599 288 1 118 2 2 0 1 1 0 1.311
600 288 1 119 3 3 2 2 0 1 0.885
601 288 1 120 0 0 2 2 0 1 1.047
602 288 1 121 3 3 1 1 1 1 0.957
603 288 1 122 3 3 2 1 1 2 0.538
604 288 1 123 1 2 2 0 0 1 1.191
605 288 1 124 1 1 3 2 1 3 0.733
606 288 1 125 3 3 1 2 1 1 0.585
607 288 1 126 3 1 1 0 1 1 0.62
608 288 1 127 2 3 3 0 0 1 1.085
609 288 1 128 2 2 0 1 0 1 0.634
610 288 1 129 3 0 3 0 0 0 0.263
611 288 1 130 1 1 1 1 1 1 1.673
612 288 1 131 2 1 3 0 1 3 1.229
613 289 0 0 2 0 3 0 0 0 2.285
614 288 1 132 3 3 3 1 1 3 0.625
615 288 1 133 0 1 0 0 1 0 1.202
616 289 0 1 2 2 2 2 0 1 3.067
617 288 1 134 2 2 1 1 1 1 1.151
618 289 0 2 3 3 1 2 0 2 2.717
619 288 1 135 2 2 1 1 1 1 0.87
620 288 1 136 2 2 1 2 1 1 0.692
621 289 0 3 3 1 0 0 0 3 2.806
622 288 1 137 0 1 1 0 0 3 1.859
623 288 1 138 3 3 0 1 1 0 0.652
624 289 0 4 3 3 3 2 0 2 4.306
625 288 1 139 2 1 2 0 0 1 0.733
626 288 1 140 0 1 3 0 1 3 0.75
627 289 0 5 0 0 2 1 1 2 1.89
628 288 1 141 1 1 3 2 1 3 0.881
629 289 0 6 0 0 0 2 0 1 1.979
630 288 1 142 0 0 0 2 0 1 1.271
631 289 0 7 0 1 2 0 0 0 1.166
632 288 1 143 3 3 3 1 1 3 1.397
633 289 0 8 0 0 3 1 1 3 1.486
634 288 1 144 2 3 3 0 1 3 1.138
635 289 0 9 3 3 0 2 0 3 1.142
636 288 1 145 2 2 2 2 0 1 1.303
637 289 0 10 0 0 1 1 1 1 1.751
638 288 1 146 3 3 2 2 1 2 0.762
639 289 0 11 2 0 2 0 0 0 0.719
640 288 1 147 1 1 3 1 1 3 0.671
641 288 1 148 1 1 0 2 1 0 0.484
642 289 0 12 0 1 0 0 0 3 1.311
643 289 0 13 0 0 3 2 0 2 1.344
644 288 1 149 3 2 0 0 0 1 1.627
645 289 0 14 2 2 1 1 1 1 0.97
646 288 1 150 3 3 0 1 0 3 1.348
647 288 1 151 2 2 3 1 0 2 0.92
648 289 0 15 2 1 3 0 0 2 1.326
649 289 0 16 2 2 3 2 1 3 0.719
650 288 1 152 1 2 0 0 0 3 1.714
651 288 1 153 2 2 2 1 1 2 0.44
652 289 0 17 2 1 1 0 2 -1 1.099
653 288 1 154 1 1 3 2 1 3 0.67
654 289 0 18 3 3 3 1 0 2 0.865
655 288 1 155 1 2 0 0 0 3 2.11
656 289 0 19 3 3 0 1 1 0 1.187
657 288 1 156 1 1 1 1 1 1 0.702
658 289 0 20 2 0 0 0 0 1 1.007
659 288 1 157 1 1 2 2 1 2 0.618
660 289 0 21 0 1 2 0 0 1 1.446
661 288 1 158 3 3 2 2 0 1 1.946
662 288 1 159 0 0 2 2 1 2 0.606
663 289 0 22 1 0 0 0 1 0 2.22
664 289 0 23 2 2 2 1 1 2 1.171
665 289 0 24 2 2 0 1 1 0 0.864
666 289 0 25 1 0 3 0 0 1 1.272
667 289 0 26 0 0 1 2 0 3 0.778
668 289 0 27 1 1 2 2 1 2 0.942
669 289 0 28 0 0 3 1 1 3 1.187
670 289 0 29 2 2 0 1 1 0 0.943
671 289 0 30 0 1 0 0 0 1 1.444
672 289 0 31 1 1 3 2 1 3 1.057
673 288 2 160 2 0 0 0 0 1 2.31
674 289 0 32 3 1 1 0 0 3 0.705
675 288 2 161 2 2 0 1 0 3 1.614
676 289 0 33 1 1 0 1 1 0 1.186
677 288 2 162 3 3 2 1 1 2 0.488
678 289 0 34 3 2 2 0 0 1 0.926
679 288 2 163 1 0 1 0 1 1 0.614
680 289 0 35 1 1 1 2 0 3 0.941
681 288 2 164 0 0 0 1 1 0 0.44
682 289 0 36 0 0 3 2 1 3 1.292
683 288 2 165 1 2 0 0 0 2 1.648
684 289 0 37 3 1 2 0 1 2 1.78
685 288 2 166 3 3 0 2 1 0 0.774
686 289 0 38 1 1 0 2 0 2 0.817
687 288 2 167 2 2 2 2 1 2 0.712
688 289 0 39 3 3 1 1 0 0 1.022
689 288 2 168 1 1 3 1 0 1 1.119
690 289 0 40 2 2 0 1 1 0 0.787
691 288 2 169 2 2 3 1 0 0 0.746
692 289 0 41 0 0 3 1 1 3 1.486
693 288 2 170 3 3 3 2 0 0 1.105
694 288 2 171 1 1 2 1 0 0 0.829
695 289 0 42 1 1 1 2 2 -1 0.885
696 288 2 172 2 2 0 2 0 3 1.392
697 289 0 43 0 1 2 0 0 1 1.531
698 288 2 173 1 2 0 0 0 1 1.378
699 289 0 44 1 1 3 2 0 2 1.076
700 288 2 174 1 2 1 0 0 3 2.229
701 289 0 45 3 0 2 0 0 1 1.783
702 288 2 175 0 0 2 2 0 0 1.038
703 289 0 46 2 3 1 0 0 0 1.49
704 288 2 176 3 0 2 0 1 2 0.516
705 289 0 47 0 0 3 1 1 3 1.031
706 288 2 177 3 3 3 2 1 3 1.287
707 289 0 48 0 0 2 2 1 2 1.086
708 288 2 178 2 2 3 2 0 2 0.831
709 289 0 49 1 1 1 1 1 1 1.15
710 288 2 179 2 2 3 1 1 3 0.581
711 289 0 50 1 0 0 0 0 2 0.795
712 288 2 180 1 2 3 0 1 3 0.984
713 288 2 181 0 1 0 0 0 1 0.885
714 289 0 51 1 0 1 0 1 1 1.833
715 288 2 182 2 3 2 0 0 1 0.641
716 289 0 52 0 0 1 2 1 1 0.596
717 288 2 183 1 1 1 1 1 1 0.645
718 289 0 53 2 2 1 2 0 0 1.323
719 288 2 184 1 1 1 1 1 1 0.558
720 289 0 54 1 2 3 0 0 2 1.206
721 288 2 185 0 0 3 1 1 3 0.858
722 289 0 55 1 1 3 2 1 3 0.843
723 288 2 186 0 0 1 1 1 1 0.419
724 289 0 56 0 1 2 0 0 3 0.628
725 288 2 187 2 2 3 1 0 1 0.715
726 289 0 57 0 0 3 2 1 3 1.245
727 288 2 188 1 1 1 2 1 1 0.883
728 289 0 58 1 1 0 1 0 1 1.272
729 288 2 189 2 2 1 2 1 1 1.025
730 288 2 190 3 0 3 0 1 3 0.868
731 289 0 59 0 1 3 0 0 1 1.684
732 288 2 191 2 2 3 2 0 1 0.683
733 289 0 60 0 0 2 1 0 0 1.234
734 288 2 192 2 1 1 0 1 1 1.47
735 289 0 61 3 3 3 1 0 1 1.168
736 288 2 193 1 2 1 0 0 3 1.073
737 289 0 62 2 2 0 1 0 2 1.104
738 288 2 194 1 1 0 2 0 3 0.964
739 289 0 63 0 2 1 0 0 0 1.331
740 288 2 195 2 2 0 1 1 0 0.533
741 289 0 64 0 0 2 1 1 2 1.149
742 288 2 196 0 0 3 1 0 1 0.834
743 289 0 65 0 0 1 2 0 2 0.977
744 288 2 197 1 2 2 0 0 3 1.432
745 289 0 66 0 2 0 0 0 3 1.192
746 288 2 198 2 2 0 1 1 0 0.592
747 288 2 199 3 0 1 0 1 1 0.434
748 289 0 67 1 2 3 0 1 3 2.584
749 288 2 200 1 1 3 2 1 3 0.648
750 289 0 68 0 0 2 1 1 2 1.442
751 288 2 201 1 1 3 1 1 3 0.425
752 288 2 202 0 0 1 1 1 1 0.418
753 289 0 69 1 1 3 2 1 3 1.148
754 288 2 203 2 2 3 2 1 3 0.632
755 289 0 70 2 2 3 1 1 3 1.129
756 288 2 204 0 0 0 1 1 0 0.306
757 289 0 71 2 2 1 2 1 1 1.07
758 288 2 205 3 3 0 1 1 0 0.711
759 289 0 72 2 2 1 1 1 1 0.798
760 288 2 206 2 2 0 1 0 1 0.981
761 289 0 73 2 2 1 2 1 1 0.958
762 288 2 207 3 1 1 0 0 3 1.445
763 289 0 74 2 1 3 0 1 3 1.299
764 288 2 208 0 2 1 0 1 1 1.221
765 289 0 75 1 1 1 2 1 1 1.009
766 288 2 209 3 0 1 0 1 1 0.553
767 289 0 76 0 2 1 0 0 2 1.156
768 288 2 210 0 0 3 2 1 3 0.699
769 288 2 211 0 0 1 2 1 1 0.536
770 289 0 77 3 3 2 2 0 3 1.706
771 288 2 212 0 0 1 1 1 1 0.404
772 289 0 78 2 2 1 1 1 1 0.855
773 288 2 213 2 2 3 1 1 3 0.685
774 289 0 79 3 0 1 0 0 0 1.823
775 288 2 214 1 1 2 2 1 2 0.466
776 288 2 215 3 3 3 2 0 1 0.879
777 288 2 216 0 0 3 2 0 1 0.913
778 288 2 217 2 2 3 2 0 1 1.074
779 288 2 218 1 0 1 0 1 1 0.767
780 288 2 219 2 3 0 0 0 3 0.603
781 288 2 220 1 1 3 2 0 1 0.839
782 288 2 221 1 1 0 1 1 0 0.404
783 288 2 222 0 0 3 2 1 3 0.691
784 288 2 223 2 2 0 1 1 0 0.634
785 288 2 224 1 1 2 1 0 3 1.203
786 288 2 225 3 3 2 2 0 1 0.825
787 288 2 226 1 1 1 2 1 1 1.157
788 288 2 227 0 0 0 2 1 0 0.626
789 288 2 228 0 0 3 1 1 3 0.819
790 288 2 229 0 0 3 2 1 3 0.867
791 288 2 230 1 1 0 1 0 3 0.804
792 288 2 231 2 1 0 0 0 2 1.243
793 288 2 232 2 2 2 1 0 1 1.202
794 288 2 233 2 2 3 1 0 1 0.706
795 288 2 234 3 1 0 0 0 3 1.18
796 288 2 235 2 2 0 2 0 1 1.195
797 288 2 236 2 2 0 1 1 0 0.564
798 288 2 237 3 3 1 2 1 1 0.558
799 288 2 238 2 0 1 0 1 1 0.354
800 288 2 239 1 2 1 0 0 3 0.837
801 288 3 240 1 1 0 2 0 3 1.46
802 288 3 241 2 2 0 2 0 1 0.578
803 288 3 242 2 2 0 2 0 1 0.686
804 288 3 243 2 0 1 0 1 1 0.305
805 288 3 244 3 3 2 1 1 2 0.398
806 288 3 245 3 0 3 0 0 1 0.456
807 288 3 246 0 0 0 2 1 0 0.369
808 288 3 247 1 1 0 1 0 1 0.364
809 288 3 248 3 2 3 0 1 3 1.474
810 288 3 249 3 2 0 0 0 3 1.157
811 288 3 250 1 1 3 2 1 3 0.606
812 288 3 251 2 0 1 0 1 1 0.304
813 288 3 252 0 0 1 2 1 1 0.547
814 288 3 253 3 3 0 2 1 0 0.973
815 288 3 254 2 2 1 2 1 1 0.544
816 288 3 255 1 1 1 1 1 1 0.365
817 288 3 256 1 1 2 1 1 2 0.992
818 288 3 257 0 1 1 0 1 1 0.372
819 288 3 258 3 3 1 2 1 1 0.445
820 288 3 259 0 0 2 2 0 1 0.403
821 288 3 260 3 1 1 0 1 1 1.167
822 288 3 261 2 1 1 0 1 1 0.893
823 288 3 262 2 3 0 0 0 3 1.557
824 288 3 263 3 3 3 1 1 3 0.488
825 288 3 264 2 2 0 1 0 1 0.447
826 288 3 265 0 0 2 2 0 1 0.384
827 288 3 266 0 1 2 0 1 2 0.742
828 289 1 80 1 0 2 0 1 2 1.211
829 288 3 267 0 0 1 1 1 1 0.676
830 288 3 268 1 1 3 2 0 2 0.569
831 289 1 81 3 3 1 1 0 3 0.951
832 288 3 269 0 0 0 1 0 1 0.624
833 289 1 82 0 2 3 0 0 1 0.991
834 288 3 270 1 1 0 2 1 0 0.459
835 289 1 83 0 1 2 0 0 0 1.894
836 288 3 271 3 3 1 2 1 1 0.857
837 289 1 84 3 1 1 0 1 1 0.908
838 288 3 272 3 3 1 2 1 1 0.432
839 289 1 85 2 2 2 1 0 0 0.771
840 288 3 273 3 2 3 0 0 2 0.984
841 289 1 86 2 2 0 1 1 0 0.641
842 288 3 274 0 1 1 0 0 0 0.856
843 289 1 87 0 0 0 1 1 0 0.401
844 288 3 275 0 0 1 2 1 1 0.787
845 289 1 88 2 2 3 2 1 3 0.975
846 288 3 276 2 2 1 1 1 1 0.639
847 289 1 89 2 2 0 1 1 0 0.291
848 288 3 277 2 3 1 0 1 1 0.928
849 289 1 90 2 2 0 1 1 0 0.479
850 288 3 278 3 3 1 2 1 1 0.388
851 289 1 91 1 0 1 0 0 3 0.821
852 288 3 279 2 2 1 1 1 1 0.454
853 289 1 92 0 1 3 0 0 2 1.089
854 288 3 280 2 3 1 0 0 2 1.286
855 288 3 281 3 3 3 2 1 3 0.505
856 289 1 93 2 3 0 0 0 2 1.733
857 288 3 282 0 0 3 2 1 3 0.964
858 289 1 94 1 1 0 2 0 1 1.479
859 288 3 283 0 0 3 2 0 2 1.688
860 289 1 95 3 0 2 0 0 1 2.06
861 288 3 284 2 0 2 0 1 2 0.991
862 289 1 96 1 2 1 0 1 1 1.181
863 288 3 285 2 2 2 2 0 3 1.385
864 289 1 97 1 1 0 2 0 3 1.279
865 288 3 286 1 1 0 1 1 0 0.667
866 288 3 287 3 3 1 2 1 1 0.592
867 289 1 98 3 3 1 1 0 3 1.804
868 288 3 288 0 0 0 1 1 0 0.387
869 289 1 99 0 1 2 0 1 2 1.173
870 288 3 289 1 1 1 2 1 1 0.891
871 289 1 100 3 1 0 0 1 0 1.09
872 288 3 290 0 0 3 1 1 3 0.555
873 289 1 101 1 1 2 2 1 2 1.032
874 288 3 291 3 0 2 0 1 2 0.486
875 289 1 102 1 1 1 2 1 1 0.928
876 288 3 292 2 2 2 2 1 2 0.635
877 288 3 293 3 3 3 2 0 2 0.69
878 289 1 103 0 1 2 0 0 0 1.797
879 288 3 294 2 1 3 0 1 3 1.004
880 289 1 104 2 2 2 2 0 3 1.413
881 288 3 295 0 0 3 2 1 3 0.637
882 289 1 105 1 0 0 0 0 1 1.196
883 288 3 296 3 0 0 0 1 0 0.422
884 288 3 297 3 1 2 0 1 2 0.431
885 289 1 106 2 2 2 1 1 2 1.068
886 288 3 298 1 1 1 1 1 1 0.469
887 288 3 299 3 3 1 2 1 1 0.474
888 288 3 300 3 2 1 0 1 1 0.809
889 288 3 301 0 0 3 1 1 3 0.556
890 289 1 107 3 3 0 1 2 -1 1.276
891 288 3 302 0 0 3 2 0 0 0.774
892 289 1 108 1 1 2 1 1 2 2.214
893 288 3 303 0 1 1 0 1 1 1.43
894 288 3 304 0 1 3 0 1 3 0.554
895 289 1 109 2 2 1 1 1 1 1.118
896 288 3 305 2 2 1 2 1 1 0.628
897 289 1 110 1 1 2 1 1 2 1.244
898 288 3 306 3 3 2 1 1 2 0.437
899 289 1 111 2 2 0 2 0 3 1.1
900 288 3 307 3 3 3 1 1 3 0.565
901 289 1 112 3 3 3 1 0 2 0.895
902 288 3 308 0 0 0 1 1 0 0.481
903 289 1 113 0 0 1 1 1 1 0.825
904 288 3 309 0 0 0 2 1 0 0.324
905 288 3 310 1 1 1 2 1 1 0.533
906 289 1 114 3 1 3 0 0 2 0.755
907 289 1 115 2 0 2 0 0 0 0.786
908 288 3 311 0 2 3 0 0 1 1.162
909 288 3 312 3 3 3 2 1 3 0.619
910 289 1 116 1 2 0 0 0 1 2.352
911 288 3 313 0 0 2 2 1 2 0.722
912 288 3 314 3 3 1 1 0 3 0.632
913 289 1 117 1 2 3 0 1 3 1.366
914 288 3 315 0 0 0 2 1 0 0.477
915 289 1 118 3 3 1 1 0 3 1.352
916 288 3 316 0 0 3 1 0 0 0.58
917 289 1 119 0 0 3 2 0 1 1.176
918 288 3 317 1 2 0 0 1 0 0.779
919 289 1 120 0 0 2 2 1 2 0.958
920 288 3 318 0 0 3 1 1 3 1.103
921 289 1 121 3 3 3 2 0 2 1.129
922 288 3 319 0 0 2 2 1 2 0.621
923 289 1 122 0 1 2 0 0 1 1.131
924 289 1 123 2 2 0 1 1 0 0.812
925 289 1 124 3 3 2 1 1 2 1.43
926 289 1 125 0 0 3 2 1 3 1.759
927 289 1 126 0 0 0 2 1 0 1.037
928 289 1 127 2 1 1 0 0 2 1.341
929 289 1 128 2 2 2 2 1 2 0.798
930 289 1 129 1 1 3 2 1 3 1.166
931 289 1 130 2 2 2 1 1 2 0.843
932 289 1 131 0 0 3 2 0 2 0.921
933 289 1 132 1 1 0 2 0 2 0.696
934 288 4 320 1 1 2 1 1 2 0.996
935 289 1 133 3 3 3 1 1 3 0.874
936 288 4 321 0 1 1 0 1 1 0.513
937 288 4 322 0 1 0 0 1 0 0.358
938 289 1 134 0 0 3 1 1 3 0.801
939 288 4 323 3 3 2 1 1 2 0.529
940 289 1 135 2 2 1 1 0 2 1.035
941 288 4 324 3 0 2 0 1 2 0.566
942 289 1 136 1 1 3 1 0 1 0.848
943 288 4 325 3 0 3 0 1 3 0.53
944 289 1 137 2 2 1 2 1 1 0.834
945 288 4 326 1 1 3 1 1 3 0.679
946 289 1 138 3 0 3 0 0 0 1.355
947 288 4 327 0 0 0 2 1 0 0.445
948 288 4 328 3 3 0 1 1 0 0.405
949 289 1 139 2 2 3 1 1 3 1.028
950 288 4 329 3 3 0 1 1 0 0.502
951 289 1 140 2 0 3 0 1 3 1.158
952 288 4 330 2 2 3 1 0 2 0.725
953 289 1 141 3 3 1 2 0 3 1.369
954 288 4 331 1 1 3 2 0 1 0.684
955 289 1 142 0 0 0 1 0 2 0.706
956 288 4 332 2 3 1 0 0 0 0.991
957 289 1 143 3 3 2 2 0 1 0.521
958 288 4 333 3 0 0 0 1 0 0.407
959 289 1 144 2 2 0 2 1 0 0.934
960 288 4 334 0 0 2 1 1 2 0.52
961 289 1 145 2 2 2 1 1 2 1.068
962 288 4 335 0 1 0 0 0 3 0.685
963 288 4 336 0 0 0 2 1 0 0.326
964 289 1 146 1 1 1 1 1 1 0.764
965 289 1 147 3 3 3 2 0 2 0.765
966 288 4 337 0 1 2 0 1 2 0.658
967 288 4 338 2 2 3 2 0 1 0.64
968 289 1 148 2 2 0 1 1 0 0.62
969 288 4 339 2 2 3 1 1 3 0.509
970 289 1 149 1 1 0 2 0 2 1.074
971 288 4 340 0 1 2 0 0 3 0.905
972 289 1 150 1 1 2 2 1 2 0.604
973 288 4 341 1 2 0 0 0 2 0.708
974 289 1 151 3 0 1 0 0 3 0.845
975 288 4 342 1 1 3 2 1 3 1.02
976 289 1 152 3 3 3 1 0 2 0.873
977 288 4 343 3 3 0 1 1 0 0.455
978 289 1 153 2 3 2 0 1 2 0.995
979 288 4 344 3 0 3 0 1 3 0.535
980 289 1 154 1 1 3 2 0 2 1.661
981 288 4 345 1 1 3 1 0 1 0.827
982 288 4 346 0 0 0 1 1 0 0.297
983 289 1 155 3 3 0 1 0 1 0.876
984 289 1 156 3 3 2 2 1 2 0.765
985 288 4 347 3 0 0 0 0 1 0.75
986 288 4 348 3 3 2 2 1 2 0.459
987 289 1 157 2 2 0 1 1 0 1.686
988 288 4 349 1 1 1 1 0 2 0.547
989 289 1 158 2 2 1 1 1 1 0.8
990 288 4 350 3 3 2 2 0 1 0.704
991 289 1 159 2 2 0 1 1 0 0.65
992 288 4 351 3 1 0 0 0 1 0.57
993 288 4 352 1 1 2 1 1 2 0.393
994 288 4 353 2 2 0 1 0 2 0.515
995 288 4 354 0 0 3 2 1 3 0.626
996 288 4 355 3 3 0 1 1 0 0.619
997 288 4 356 0 2 0 0 0 2 0.469
998 288 4 357 2 0 2 0 0 0 1.2
999 288 4 358 3 1 3 0 0 1 0.801
1000 288 4 359 3 3 0 2 0 3 0.605
1001 288 4 360 2 2 0 2 1 0 0.665
1002 288 4 361 2 2 2 2 1 2 0.478
1003 288 4 362 3 3 0 2 0 2 0.451
1004 288 4 363 0 1 0 0 1 0 0.791
1005 288 4 364 0 0 0 1 1 0 0.403
1006 288 4 365 2 2 3 2 1 3 0.914
1007 288 4 366 2 2 0 1 1 0 0.417
1008 288 4 367 2 2 3 1 1 3 0.554
1009 288 4 368 3 3 3 2 0 1 0.516
1010 288 4 369 3 0 1 0 1 1 0.493
1011 288 4 370 2 2 3 2 1 3 1.241
1012 288 4 371 1 1 2 1 1 2 0.461
1013 288 4 372 3 3 1 1 1 1 0.564
1014 288 4 373 3 3 3 1 1 3 0.584
1015 288 4 374 2 3 0 0 1 0 0.555
1016 288 4 375 0 0 3 2 1 3 0.676
1017 288 4 376 0 0 2 1 1 2 0.348
1018 288 4 377 2 2 2 1 1 2 0.552
1019 288 4 378 3 3 3 1 1 3 0.596
1020 288 4 379 1 1 0 1 0 1 0.822
1021 288 4 380 1 2 2 0 0 1 1.388
1022 288 4 381 1 1 2 2 1 2 0.58
1023 288 4 382 2 1 0 0 1 0 0.503
1024 288 4 383 2 1 0 0 0 3 0.605
1025 288 4 384 1 1 1 2 1 1 0.473
1026 288 4 385 0 0 3 1 1 3 0.623
1027 288 4 386 3 3 3 1 1 3 0.424
1028 288 4 387 2 2 2 2 0 1 0.615
1029 288 4 388 0 1 1 0 1 1 0.453
1030 288 4 389 3 1 0 0 0 1 0.524
1031 288 4 390 0 0 2 1 1 2 0.613
1032 288 4 391 1 1 1 2 1 1 0.637
1033 288 4 392 3 2 0 0 0 3 0.635
1034 288 4 393 0 1 0 0 1 0 0.896
1035 288 4 394 1 2 1 0 1 1 0.52
1036 288 4 395 2 3 0 0 1 0 0.445
1037 288 4 396 1 1 2 1 1 2 0.885
1038 288 4 397 1 0 0 0 1 0 0.341
1039 288 4 398 0 0 1 1 1 1 0.32
1040 288 4 399 1 1 1 1 1 1 0.285
1041 288 5 400 3 2 3 0 0 1 1.141
1042 288 5 401 2 2 2 1 1 2 0.471
1043 288 5 402 1 1 1 2 1 1 0.548
1044 288 5 403 0 0 1 2 1 1 0.455
1045 289 2 160 1 1 2 1 1 2 1.35
1046 288 5 404 2 2 1 2 1 1 0.429
1047 289 2 161 0 0 0 1 1 0 1.004
1048 288 5 405 1 1 2 2 0 3 0.42
1049 288 5 406 2 2 1 2 1 1 0.574
1050 289 2 162 2 0 0 0 1 0 0.558
1051 288 5 407 2 2 0 2 1 0 0.527
1052 289 2 163 2 0 0 0 1 0 0.881
1053 288 5 408 1 2 1 0 1 1 0.316
1054 289 2 164 1 1 3 1 1 3 1.176
1055 288 5 409 1 2 1 0 1 1 0.313
1056 289 2 165 0 0 3 1 1 3 0.917
1057 288 5 410 3 3 2 1 1 2 0.582
1058 288 5 411 2 2 2 1 0 1 0.521
1059 289 2 166 3 3 1 2 0 2 1.248
1060 289 2 167 3 3 2 2 0 1 0.484
1061 288 5 412 3 3 2 1 1 2 0.474
1062 288 5 413 3 3 0 2 1 0 0.399
1063 289 2 168 3 3 1 1 1 1 0.556
1064 288 5 414 3 3 0 2 0 1 0.406
1065 289 2 169 2 3 3 0 0 2 0.559
1066 288 5 415 0 0 0 1 1 0 0.475
1067 289 2 170 3 1 0 0 1 0 0.741
1068 288 5 416 3 3 0 2 0 2 1.016
1069 289 2 171 1 1 2 2 1 2 1.303
1070 288 5 417 0 2 1 0 1 1 0.807
1071 289 2 172 2 2 0 1 1 0 0.703
1072 288 5 418 1 1 1 2 1 1 0.552
1073 289 2 173 1 1 3 2 1 3 0.834
1074 288 5 419 3 2 1 0 1 1 1.156
1075 289 2 174 3 3 2 2 1 2 1.505
1076 288 5 420 1 2 0 0 0 1 0.906
1077 289 2 175 3 3 1 2 1 1 0.584
1078 288 5 421 0 0 0 1 1 0 0.253
1079 288 5 422 1 0 2 0 0 1 0.412
1080 289 2 176 1 1 1 2 1 1 1.631
1081 288 5 423 3 3 3 1 0 2 0.752
1082 289 2 177 2 2 1 1 1 1 1.259
1083 288 5 424 1 1 3 2 1 3 0.591
1084 289 2 178 3 1 2 0 1 2 1.268
1085 288 5 425 0 2 3 0 0 2 0.434
1086 289 2 179 2 2 1 1 1 1 0.606
1087 288 5 426 1 1 2 1 1 2 0.605
1088 288 5 427 3 3 0 1 1 0 0.623
1089 289 2 180 1 0 3 0 1 3 1.135
1090 288 5 428 3 3 2 1 1 2 0.505
1091 289 2 181 1 1 0 2 0 2 0.946
1092 288 5 429 0 0 2 1 1 2 0.486
1093 289 2 182 0 1 2 0 1 2 0.523
1094 288 5 430 0 0 3 1 1 3 0.621
1095 289 2 183 1 1 3 1 0 2 0.431
1096 288 5 431 1 1 0 1 1 0 0.47
1097 289 2 184 1 0 2 0 0 3 0.81
1098 288 5 432 0 1 3 0 1 3 0.741
1099 289 2 185 3 3 1 1 1 1 0.647
1100 288 5 433 1 1 1 1 1 1 0.402
1101 288 5 434 3 3 1 2 1 1 0.529
1102 288 5 435 3 3 0 1 1 0 0.461
1103 288 5 436 0 0 1 1 1 1 0.412
1104 288 5 437 0 0 3 2 1 3 0.699
1105 288 5 438 2 3 1 0 1 1 0.666
1106 288 5 439 1 1 1 2 0 2 0.704
1107 288 5 440 0 0 1 2 1 1 0.464
1108 288 5 441 1 2 3 0 1 3 5.695
1109 288 5 442 0 0 1 1 1 1 0.483
1110 288 5 443 1 1 1 1 1 1 0.378
1111 288 5 444 1 2 2 0 1 2 0.452
1112 288 5 445 1 1 2 1 1 2 0.404
1113 288 5 446 2 2 0 2 0 1 0.603
1114 288 5 447 1 2 2 0 1 2 0.417
1115 288 5 448 1 1 0 2 1 0 0.648
1116 288 5 449 1 0 3 0 1 3 0.761
1117 288 5 450 0 0 0 1 0 1 0.662
1118 288 5 451 3 3 1 1 1 1 0.362
1119 288 5 452 0 0 2 2 1 2 0.555
1120 288 5 453 0 0 2 1 1 2 0.391
1121 288 5 454 1 0 0 0 1 0 1.2
1122 289 2 186 0 0 0 1 1 0 59.974
1123 288 5 455 3 2 3 0 1 3 0.501
1124 288 5 456 1 1 1 1 1 1 0.427
1125 289 2 187 2 2 0 2 0 2 1.647
1126 288 5 457 3 3 1 2 0 2 0.465
1127 289 2 188 3 3 1 2 0 2 1.332
1128 288 5 458 1 1 2 2 0 0 1.53
1129 289 2 189 2 2 3 1 1 3 0.99
1130 288 5 459 0 2 0 0 1 0 0.799
1131 288 5 460 0 1 1 0 1 1 0.85
1132 288 5 461 2 3 2 0 0 1 0.483
1133 288 5 462 2 2 2 2 1 2 0.42
1134 288 5 463 2 2 1 2 1 1 0.858
1135 288 5 464 2 2 2 2 0 1 0.853
1136 288 5 465 2 2 1 2 1 1 0.424
1137 288 5 466 1 1 2 2 1 2 0.574
1138 288 5 467 1 1 0 2 1 0 0.463
1139 288 5 468 0 0 3 1 1 3 0.527
1140 288 5 469 3 2 2 0 0 0 1.284
1141 288 5 470 0 2 2 0 1 2 0.513
1142 288 5 471 2 2 0 2 1 0 0.549
1143 288 5 472 2 3 2 0 1 2 0.431
1144 288 5 473 0 0 3 2 1 3 0.542
1145 288 5 474 3 3 0 2 1 0 0.52
1146 288 5 475 1 0 0 0 0 1 0.597
1147 288 5 476 1 2 2 0 0 3 0.563
1148 288 5 477 2 2 2 2 0 1 0.625
1149 288 5 478 2 2 0 1 1 0 0.398
1150 288 5 479 3 3 2 1 1 2 0.376
1151 289 2 190 3 3 0 1 2 -1 80.514
1152 289 2 191 3 3 3 2 1 3 1.363
1153 289 2 192 3 1 2 0 1 2 1.561
1154 289 2 193 2 2 1 1 1 1 0.968
1155 289 2 194 2 2 0 2 0 2 1.148
1156 289 2 195 0 0 0 2 0 1 0.404
1157 289 2 196 1 1 3 1 0 1 0.335
1158 289 2 197 2 1 0 0 0 2 0.461
1159 289 2 198 0 0 2 2 0 3 0.957
1160 289 2 199 3 3 2 1 0 1 0.245
1161 289 2 200 1 1 3 2 0 0 0.685
1162 289 2 201 2 2 2 1 1 2 0.958
1163 289 2 202 0 0 1 2 1 1 1.289
1164 289 2 203 2 2 1 2 0 2 0.775
1165 289 2 204 1 2 3 0 0 2 1.142
1166 289 2 205 3 3 2 2 1 2 1.053
1167 289 2 206 3 3 3 1 1 3 0.926
1168 289 2 207 2 2 0 2 1 0 1.657
1169 289 2 208 0 2 2 0 0 0 0.917
1170 289 2 209 0 2 1 0 1 1 0.99
1171 289 2 210 1 1 2 1 1 2 1.089
1172 289 2 211 0 0 1 1 0 0 1.169
1173 289 2 212 2 3 0 0 0 2 0.513
1174 289 2 213 0 2 1 0 1 1 1.241
1175 289 2 214 2 2 0 1 1 0 1.124
1176 289 2 215 1 1 1 1 0 2 0.578
1177 289 2 216 1 1 1 1 1 1 0.44
1178 289 2 217 0 1 2 0 0 1 0.622
1179 289 2 218 3 3 3 2 0 2 0.424
1180 289 2 219 2 2 3 1 0 0 0.227
1181 289 2 220 0 1 0 0 0 2 0.933
1182 289 2 221 3 0 1 0 0 0 1.582
1183 289 2 222 0 0 0 1 1 0 0.319
1184 289 2 223 3 0 3 0 0 0 0.666
1185 289 2 224 0 0 3 2 1 3 1.138
1186 289 2 225 1 1 0 1 0 2 1.36
1187 289 2 226 0 0 1 1 1 1 0.585
1188 289 2 227 0 0 3 1 1 3 1.483
1189 289 2 228 1 2 2 0 1 2 1.122
1190 289 2 229 0 0 3 1 1 3 0.896
1191 289 2 230 1 0 1 0 0 3 0.695
1192 289 2 231 3 2 1 0 1 1 1.016
1193 289 2 232 0 0 0 1 1 0 0.986
1194 289 2 233 1 1 1 1 0 2 1.966
1195 289 2 234 2 3 0 0 0 3 0.961
1196 289 2 235 1 1 3 2 1 3 0.911
1197 289 2 236 1 1 0 1 1 0 0.934
1198 289 2 237 3 3 0 2 0 2 0.753
1199 289 2 238 0 0 3 1 1 3 0.975
1200 289 2 239 2 0 1 0 1 1 1.075
1201 289 3 240 3 3 2 2 0 3 1.301
1202 289 3 241 3 3 1 1 1 1 1.393
1203 289 3 242 1 1 3 1 1 3 0.95
1204 289 3 243 2 2 1 1 1 1 0.875
1205 289 3 244 2 2 0 2 1 0 0.68
1206 289 3 245 1 1 2 2 1 2 1.436
1207 289 3 246 3 3 2 2 1 2 0.694
1208 289 3 247 0 0 3 1 1 3 1.14
1209 289 3 248 0 0 0 2 1 0 0.535
1210 289 3 249 3 3 1 1 0 3 0.523
1211 289 3 250 3 3 1 1 1 1 0.93
1212 289 3 251 2 2 1 1 1 1 0.952
1213 289 3 252 1 1 3 1 1 3 1.484
1214 289 3 253 1 1 0 1 1 0 0.381
1215 289 3 254 2 2 2 1 0 3 1.782
1216 289 3 255 1 2 3 0 1 3 0.608
1217 289 3 256 2 1 3 0 0 2 1.041
1218 289 3 257 1 1 3 2 1 3 1.276
1219 289 3 258 0 1 0 0 0 3 0.63
1220 289 3 259 2 2 2 2 0 0 0.687
1221 289 3 260 0 1 0 0 0 1 1.281
1222 289 3 261 2 0 2 0 0 0 1.149
1223 289 3 262 2 2 0 1 1 0 0.526
1224 289 3 263 3 3 1 1 0 3 2.37
1225 289 3 264 3 3 3 2 1 3 0.413
1226 289 3 265 1 0 0 0 0 1 0.485
1227 289 3 266 0 0 1 2 1 1 0.82
1228 289 3 267 0 1 2 0 0 1 0.845
1229 289 3 268 1 1 1 1 1 1 0.297
1230 289 3 269 0 2 2 0 1 2 1.045
1231 289 3 270 0 1 2 0 1 2 0.55
1232 289 3 271 0 1 1 0 1 1 0.569
1233 289 3 272 3 2 2 0 0 1 0.524
1234 289 3 273 2 2 3 1 1 3 1.427
1235 289 3 274 2 2 2 1 1 2 0.615
1236 289 3 275 1 2 3 0 1 3 0.98
1237 289 3 276 0 2 2 0 0 1 0.776
1238 289 3 277 2 2 2 1 1 2 0.422
1239 289 3 278 1 1 0 2 0 2 0.66
1240 289 3 279 2 0 2 0 0 1 0.599
1241 289 3 280 2 2 1 1 1 1 0.524
1242 289 3 281 2 2 0 2 1 0 1.222
1243 289 3 282 2 2 2 2 0 1 0.694
1244 289 3 283 1 1 2 1 1 2 0.952
1245 289 3 284 0 0 3 2 0 1 0.802
1246 289 3 285 0 0 1 1 1 1 0.767
1247 289 3 286 2 2 0 1 1 0 0.603
1248 289 3 287 1 1 0 1 0 1 0.348
1249 289 3 288 0 1 0 0 1 0 1.241
1250 289 3 289 1 2 2 0 0 1 1.108
1251 289 3 290 3 3 3 2 0 2 1.116
1252 289 3 291 2 2 0 1 1 0 0.319
1253 289 3 292 0 0 2 2 0 0 0.56
1254 289 3 293 0 0 3 2 0 2 0.46
1255 289 3 294 0 0 2 2 1 2 1.18
1256 289 3 295 2 3 0 0 0 3 0.648
1257 289 3 296 1 1 3 2 0 2 0.385
1258 289 3 297 2 2 3 1 0 2 0.59
1259 289 3 298 1 1 3 2 1 3 0.713
1260 289 3 299 2 2 3 2 1 3 0.347
1261 289 3 300 3 3 1 1 0 3 0.518
1262 289 3 301 2 2 1 2 1 1 0.931
1263 289 3 302 1 1 0 2 0 1 0.43
1264 289 3 303 2 2 0 2 0 1 0.143
1265 289 3 304 2 2 2 1 0 1 0.532
1266 289 3 305 3 2 3 0 1 3 0.491
1267 289 3 306 0 0 3 2 0 0 0.598
1268 289 3 307 3 3 1 2 0 2 0.417
1269 289 3 308 2 0 3 0 0 1 0.445
1270 289 3 309 3 3 3 2 0 0 0.493
1271 289 3 310 0 0 2 1 0 1 0.518
1272 289 3 311 1 1 2 1 0 3 0.589
1273 289 3 312 2 1 2 0 0 1 0.322
1274 289 3 313 2 2 2 2 0 1 0.455
1275 289 3 314 3 3 3 2 0 2 0.295
1276 289 3 315 1 1 0 2 1 0 0.668
1277 289 3 316 2 2 0 1 1 0 0.347
1278 289 3 317 3 3 0 1 1 0 0.469
1279 289 3 318 3 3 3 1 1 3 0.779
1280 289 3 319 1 1 3 1 1 3 0.486
1281 289 4 320 2 0 1 0 1 1 0.997
1282 289 4 321 2 2 3 2 0 2 0.494
1283 289 4 322 1 1 2 1 0 3 1.191
1284 289 4 323 2 2 2 2 1 2 1.389
1285 289 4 324 0 0 1 2 0 0 1.304
1286 289 4 325 0 0 2 1 1 2 0.547
1287 289 4 326 2 2 2 1 1 2 0.406
1288 289 4 327 2 0 1 0 1 1 0.414
1289 289 4 328 3 3 3 2 1 3 0.652
1290 289 4 329 1 1 3 2 1 3 0.594
1291 289 4 330 1 0 0 0 1 0 0.435
1292 289 4 331 1 1 3 2 1 3 0.448
1293 289 4 332 0 0 0 1 1 0 0.455
1294 289 4 333 1 2 0 0 1 0 0.525
1295 289 4 334 0 0 3 2 1 3 0.551
1296 289 4 335 2 2 1 2 1 1 0.575
1297 289 4 336 3 1 0 0 0 3 0.534
1298 289 4 337 1 2 1 0 1 1 0.413
1299 289 4 338 1 1 3 1 1 3 0.789
1300 289 4 339 0 0 1 2 1 1 0.373
1301 289 4 340 3 1 2 0 1 2 0.654
1302 289 4 341 0 0 3 1 1 3 0.909
1303 289 4 342 0 0 2 2 0 3 0.409
1304 289 4 343 2 2 0 1 1 0 0.581
1305 289 4 344 1 1 2 1 1 2 0.487
1306 289 4 345 2 2 2 2 1 2 0.594
1307 289 4 346 0 0 1 2 1 1 0.57
1308 289 4 347 2 1 1 0 0 3 0.444
1309 289 4 348 3 3 1 1 0 3 1.606
1310 289 4 349 2 2 3 1 1 3 1.159
1311 289 4 350 1 2 2 0 0 0 1.764
1312 289 4 351 1 2 1 0 1 1 2.383
1313 289 4 352 3 3 3 1 2 -1 7.329
1314 289 4 353 2 1 1 0 0 3 2.455
1315 289 4 354 2 2 3 2 1 3 1.439
1316 289 4 355 2 2 1 2 0 2 0.361
1317 289 4 356 0 0 0 1 0 1 0.182
1318 289 4 357 0 1 0 0 0 3 0.618
1319 289 4 358 0 0 0 2 1 0 0.388
1320 289 4 359 1 1 3 1 0 1 0.797
1321 289 4 360 0 0 3 2 1 3 1.009
1322 289 4 361 2 2 0 2 1 0 4.73
1323 289 4 362 2 2 2 1 1 2 1.399
1324 289 4 363 2 1 3 0 1 3 0.331
1325 289 4 364 3 3 3 2 1 3 0.22
1326 289 4 365 0 0 1 2 0 2 0.993
1327 289 4 366 0 0 0 1 0 3 1.512
1328 289 4 367 0 0 2 2 0 0 0.306
1329 289 4 368 1 1 2 2 1 2 0.295
1330 289 4 369 2 2 3 1 0 2 0.609
1331 289 4 370 3 3 1 1 1 1 0.79
1332 289 4 371 2 2 0 2 1 0 0.166
1333 289 4 372 3 3 2 1 0 3 0.503
1334 289 4 373 2 2 3 1 0 1 0.399
1335 289 4 374 0 2 2 0 0 0 0.923
1336 289 4 375 0 0 2 2 0 0 2.427
1337 289 4 376 0 0 1 1 0 3 0.03
1338 289 4 377 0 0 0 1 0 2 0.503
1339 289 4 378 3 2 3 0 0 0 0.271
1340 289 4 379 2 2 3 1 1 3 0.303
1341 289 4 380 2 2 2 1 1 2 0.668
1342 289 4 381 1 0 2 0 0 3 2.89
1343 289 4 382 2 2 1 1 1 1 0.829
1344 289 4 383 0 0 3 1 0 1 1.03
1345 289 4 384 3 3 2 2 0 0 0.946
1346 289 4 385 1 0 3 0 0 2 0.586
1347 289 4 386 3 3 2 1 0 3 0.831
1348 289 4 387 2 1 1 0 0 0 1.628
1349 289 4 388 1 2 1 0 1 1 0.572
1350 289 4 389 0 0 3 2 0 0 5.381
1351 289 4 390 2 3 0 0 0 1 1.662
1352 289 4 391 0 2 3 0 0 0 0.413
1353 289 4 392 0 1 2 0 0 0 3.673
1354 289 4 393 3 1 3 0 0 2 0.959
1355 289 4 394 1 0 1 0 1 1 1.383
1356 289 4 395 3 3 0 2 0 2 0.306
1357 289 4 396 3 3 3 2 0 1 0.503
1358 289 4 397 3 3 2 2 1 2 2.021
1359 289 4 398 1 1 0 1 0 1 2.691
1360 289 4 399 2 1 0 0 0 2 0.542
1361 289 5 400 3 3 1 2 0 0 0.599
1362 289 5 401 2 3 1 0 0 2 0.332
1363 289 5 402 3 3 0 1 0 2 1.546
1364 289 5 403 2 1 1 0 0 3 1.196
1365 289 5 404 1 1 0 2 0 3 0.834
1366 289 5 405 1 1 3 2 0 2 0.388
1367 289 5 406 1 1 1 1 1 1 0.432
1368 289 5 407 0 0 3 1 0 1 0.408
1369 289 5 408 2 0 1 0 0 0 7.571
1370 289 5 409 1 1 2 1 0 1 0.35
1371 289 5 410 0 0 2 1 1 2 2.108
1372 289 5 411 2 2 2 2 1 2 0.75
1373 289 5 412 0 0 3 2 0 1 0.175
1374 289 5 413 2 2 2 1 1 2 1.715
1375 289 5 414 0 1 1 0 1 1 0.524
1376 289 5 415 2 2 1 2 0 0 0.549
1377 289 5 416 1 1 3 1 0 2 0.268
1378 289 5 417 1 1 3 1 0 2 2.941
1379 289 5 418 3 3 0 2 0 1 0.451
1380 289 5 419 3 3 0 2 0 1 4.995
1381 289 5 420 1 1 2 2 0 0 0.527
1382 289 5 421 1 1 2 2 1 2 0.237
1383 289 5 422 0 1 3 0 0 1 0.507
1384 289 5 423 3 0 0 0 0 3 0.867
1385 289 5 424 1 1 1 2 0 2 0.852
1386 289 5 425 2 3 2 0 0 0 0.703
1387 289 5 426 3 3 1 1 2 -1 0.4
1388 289 5 427 0 0 3 2 0 0 0.464
1389 289 5 428 0 0 2 2 1 2 0.88
1390 289 5 429 1 1 1 1 0 2 0.584
1391 289 5 430 2 2 0 2 1 0 0.802
1392 289 5 431 0 0 2 2 0 1 4.05
1393 289 5 432 3 3 0 1 1 0 0.331
1394 289 5 433 2 2 2 2 0 0 0.556
1395 289 5 434 3 3 1 1 0 3 0.562
1396 289 5 435 1 2 1 0 1 1 1.257
1397 289 5 436 1 1 2 2 1 2 1.08
1398 289 5 437 3 0 2 0 0 1 1.144
1399 289 5 438 2 2 0 2 1 0 0.911
1400 289 5 439 0 2 1 0 0 0 8.613
1401 289 5 440 2 1 2 0 0 1 0.378
1402 289 5 441 1 2 1 0 0 2 1.623
1403 289 5 442 1 1 0 1 0 1 0.183
1404 289 5 443 2 2 1 2 0 3 7.041
1405 289 5 444 3 3 1 2 0 2 0.613
1406 289 5 445 0 0 0 2 0 1 4.016
1407 289 5 446 2 2 3 2 0 2 1.088
1408 289 5 447 1 1 1 2 0 3 0.537
1409 289 5 448 0 0 2 2 0 1 0.47
1410 289 5 449 0 1 0 0 1 0 0.719
1411 289 5 450 3 2 0 0 1 0 0.412
1412 289 5 451 3 3 2 1 1 2 0.212
1413 289 5 452 3 3 2 1 0 1 0.563
1414 289 5 453 0 0 1 2 1 1 0.719
1415 289 5 454 3 0 2 0 1 2 2.444
1416 289 5 455 1 1 3 1 0 2 3.387
1417 289 5 456 1 2 0 0 0 1 0.62
1418 289 5 457 1 1 1 2 0 0 1.046
1419 289 5 458 0 2 2 0 0 1 2.507
1420 289 5 459 3 3 2 1 0 3 1.516
1421 289 5 460 2 2 0 1 1 0 1.007
1422 289 5 461 0 0 0 2 0 3 1.208
1423 289 5 462 2 0 2 0 1 2 0.967
1424 289 5 463 1 1 0 2 0 1 1.233
1425 289 5 464 0 1 1 0 0 2 0.543
1426 289 5 465 1 1 0 2 1 0 0.86
1427 289 5 466 1 0 2 0 1 2 1.027
1428 289 5 467 0 0 0 2 1 0 0.827
1429 289 5 468 1 1 3 2 0 2 3.659
1430 289 5 469 1 1 2 1 0 1 0.226
1431 289 5 470 2 0 0 0 0 1 0.612
1432 289 5 471 3 3 0 2 0 2 0.158
1433 289 5 472 2 1 0 0 0 1 16.931
1434 289 5 473 2 2 0 2 0 2 3.188
1435 289 5 474 3 3 2 1 0 0 10.3
1436 289 5 475 2 3 0 0 0 1 0.342
1437 289 5 476 0 0 2 2 1 2 3.002
1438 289 5 477 0 0 0 2 0 1 3.355
1439 289 5 478 2 2 1 2 0 2 13.123
1440 289 5 479 2 2 2 2 0 3 0.349
1441 292 0 0 3 3 1 2 1 1 4.739
1442 292 0 1 0 0 1 2 1 1 5.348
1443 292 0 2 3 3 3 1 0 2 4.585
1444 292 0 3 0 2 0 0 0 3 2.093
1445 292 0 4 1 1 2 1 1 2 1.099
1446 292 0 5 1 2 3 0 1 3 1.112
1447 292 0 6 1 1 2 1 0 3 2.102
1448 292 0 7 1 1 1 1 1 1 0.731
1449 292 0 8 0 0 0 2 1 0 1.116
1450 292 0 9 3 3 0 1 0 1 1.975
1451 292 0 10 3 3 3 2 1 3 0.943
1452 292 0 11 2 2 0 1 1 0 0.786
1453 292 0 12 3 1 1 0 0 3 1.171
1454 292 0 13 1 1 2 2 1 2 0.983
1455 292 0 14 2 2 2 1 1 2 0.737
1456 292 0 15 0 1 3 0 0 0 1.218
1457 292 0 16 2 2 3 1 0 2 1.743
1458 292 0 17 3 0 2 0 0 1 1.353
1459 292 0 18 0 0 3 1 1 3 0.774
1460 292 0 19 3 3 0 2 0 3 1.973
1461 292 0 20 2 0 0 0 1 0 2.679
1462 292 0 21 2 3 2 0 0 1 2.779
1463 292 0 22 0 0 0 1 1 0 0.92
1464 292 0 23 2 2 3 1 1 3 0.892
1465 292 0 24 1 2 3 0 0 2 4.265
1466 292 0 25 0 0 1 2 0 0 0.958
1467 292 0 26 0 0 2 1 1 2 0.925
1468 292 0 27 2 0 2 0 0 1 2.561
1469 292 0 28 2 2 0 2 0 2 3.643
1470 292 0 29 1 0 1 0 0 3 1.297
1471 292 0 30 0 0 1 2 1 1 0.777
1472 292 0 31 0 1 2 0 1 2 1.762
1473 292 0 32 3 3 3 1 1 3 0.792
1474 292 0 33 1 1 1 2 0 3 1.27
1475 292 0 34 2 2 2 2 0 0 2.311
1476 292 0 35 3 1 2 0 0 3 1.341
1477 292 0 36 0 2 3 0 1 3 2.125
1478 292 0 37 1 1 1 2 0 2 2.044
1479 292 0 38 3 3 2 1 0 1 1.86
1480 292 0 39 0 0 2 1 0 0 2.562
1481 292 0 40 2 1 2 0 0 3 2.055
1482 292 0 41 3 3 3 2 0 2 1.979
1483 292 0 42 2 0 0 0 1 0 2.789
1484 292 0 43 0 0 3 2 1 3 0.908
1485 292 0 44 0 0 2 1 1 2 0.752
1486 292 0 45 0 2 3 0 1 3 0.826
1487 292 0 46 3 0 3 0 0 1 1.498
1488 292 0 47 1 1 0 1 1 0 1.004
1489 292 0 48 2 2 2 2 1 2 1.019
1490 292 0 49 2 1 2 0 0 3 1.555
1491 292 0 50 3 3 1 1 0 3 1.772
1492 292 0 51 1 0 2 0 1 2 0.805
1493 292 0 52 2 2 1 2 1 1 0.795
1494 292 0 53 0 2 2 0 0 1 1.659
1495 292 0 54 2 2 2 2 1 2 2.103
1496 292 0 55 3 0 3 0 0 2 2.608
1497 292 0 56 2 2 0 2 0 3 1.539
1498 292 0 57 2 2 0 2 1 0 0.507
1499 292 0 58 2 2 2 1 0 0 1.341
1500 292 0 59 0 0 3 2 0 2 1.436
1501 292 0 60 1 1 1 1 1 1 0.585
1502 292 0 61 1 0 2 0 1 2 1.608
1503 292 0 62 1 1 1 1 1 1 1.06
1504 292 0 63 3 3 2 2 0 0 1.032
1505 292 0 64 0 1 0 0 0 2 1.204
1506 292 0 65 2 2 2 2 1 2 0.831
1507 292 0 66 3 3 1 2 0 3 0.884
1508 292 0 67 1 1 3 2 0 1 2.434
1509 292 0 68 1 2 3 0 0 2 1.356
1510 292 0 69 2 2 0 2 0 2 1.002
1511 292 0 70 2 2 3 2 1 3 0.701
1512 292 0 71 1 1 2 2 1 2 1.374
1513 292 0 72 1 1 1 1 1 1 0.554
1514 292 0 73 0 0 1 1 1 1 0.347
1515 292 0 74 0 0 1 1 1 1 0.227
1516 292 0 75 0 0 0 1 1 0 0.4
1517 292 0 76 3 1 1 0 1 1 0.598
1518 292 0 77 0 0 1 2 1 1 0.364
1519 292 0 78 1 2 3 0 0 0 1.316
1520 292 0 79 1 1 3 1 1 3 0.87
1521 292 1 80 3 0 0 0 0 1 1.056
1522 292 1 81 3 3 0 1 1 0 0.642
1523 292 1 82 0 0 2 2 1 2 0.798
1524 292 1 83 1 1 3 1 1 3 0.878
1525 292 1 84 2 2 1 2 1 1 0.514
1526 292 1 85 2 2 0 1 1 0 0.316
1527 292 1 86 2 2 3 1 1 3 0.782
1528 292 1 87 3 1 2 0 1 2 0.783
1529 292 1 88 1 1 1 1 1 1 0.216
1530 292 1 89 1 1 1 1 1 1 0.205
1531 292 1 90 1 1 0 1 1 0 0.171
1532 292 1 91 0 0 2 2 1 2 0.719
1533 292 1 92 0 0 3 1 1 3 0.81
1534 292 1 93 2 1 1 0 1 1 0.955
1535 292 1 94 2 3 1 0 0 2 0.909
1536 292 1 95 0 0 2 2 0 0 0.514
1537 292 1 96 1 1 0 1 1 0 0.289
1538 292 1 97 1 2 3 0 1 3 0.804
1539 292 1 98 2 0 3 0 1 3 0.732
1540 292 1 99 1 2 0 0 1 0 1.431
1541 292 1 100 3 3 3 1 1 3 0.712
1542 292 1 101 2 2 2 1 0 0 1.195
1543 292 1 102 2 2 0 1 1 0 0.473
1544 292 1 103 3 3 3 2 0 2 0.627
1545 292 1 104 0 0 0 1 1 0 0.446
1546 292 1 105 3 1 1 0 0 2 0.73
1547 292 1 106 2 2 0 2 0 2 4.751
1548 292 1 107 2 2 3 2 1 3 0.731
1549 292 1 108 0 0 1 1 1 1 0.309
1550 292 1 109 3 3 3 1 0 2 0.574
1551 292 1 110 0 1 0 0 1 0 0.473
1552 292 1 111 0 0 1 1 1 1 0.269
1553 292 1 112 1 1 0 2 0 2 0.61
1554 292 1 113 2 2 2 1 1 2 0.725
1555 292 1 114 2 2 0 2 0 2 0.766
1556 292 1 115 2 2 3 1 0 2 0.331
1557 292 1 116 0 0 3 2 1 3 1.062
1558 292 1 117 2 2 2 1 1 2 0.637
1559 292 1 118 3 3 1 2 1 1 0.481
1560 292 1 119 1 2 1 0 0 0 0.917
1561 292 1 120 0 0 0 2 1 0 1.17
1562 292 1 121 2 2 1 1 1 1 0.317
1563 292 1 122 1 2 1 0 0 2 1.958
1564 292 1 123 1 1 1 1 1 1 0.369
1565 292 1 124 2 2 1 2 0 0 0.63
1566 292 1 125 0 0 3 1 1 3 0.816
1567 292 1 126 1 2 0 0 0 2 1.672
1568 292 1 127 2 1 2 0 1 2 1.724
1569 292 1 128 1 1 0 1 1 0 0.316
1570 292 1 129 0 2 2 0 1 2 0.781
1571 292 1 130 0 1 0 0 1 0 0.39
1572 292 1 131 3 3 0 1 0 3 0.861
1573 292 1 132 2 2 0 2 0 2 1.172
1574 292 1 133 2 1 1 0 1 1 0.555
1575 292 1 134 2 2 0 1 1 0 0.284
1576 292 1 135 0 1 0 0 0 3 1.511
1577 292 1 136 3 3 2 2 0 1 0.591
1578 292 1 137 1 1 3 1 1 3 1.011
1579 292 1 138 1 0 3 0 1 3 1.372
1580 292 1 139 0 0 0 2 1 0 0.325
1581 292 1 140 2 3 3 0 1 3 2.047
1582 292 1 141 2 3 1 0 0 0 1.242
1583 292 1 142 1 1 3 2 1 3 1.788
1584 292 1 143 2 0 3 0 1 3 0.633
1585 292 1 144 3 3 1 2 1 1 0.325
1586 292 1 145 3 3 1 2 1 1 0.788
1587 292 1 146 2 2 0 1 1 0 0.245
1588 292 1 147 3 0 0 0 1 0 0.329
1589 292 1 148 0 1 0 0 0 3 0.994
1590 292 1 149 1 2 1 0 1 1 0.615
1591 292 1 150 1 1 3 1 1 3 0.558
1592 292 1 151 3 3 0 1 0 2 1.135
1593 292 1 152 3 3 1 1 1 1 0.414
1594 292 1 153 2 3 3 0 1 3 1.229
1595 292 1 154 1 1 0 2 0 3 9.548
1596 292 1 155 1 1 1 1 1 1 0.294
1597 292 1 156 0 0 1 2 1 1 0.374
1598 292 1 157 1 0 3 0 0 0 1.078
1599 292 1 158 2 2 1 2 1 1 0.374
1600 292 1 159 3 3 0 2 1 0 0.387
1601 292 2 160 1 2 0 0 0 1 0.714
1602 292 2 161 0 1 1 0 1 1 0.529
1603 292 2 162 1 1 2 2 1 2 1.225
1604 292 2 163 3 2 2 0 1 2 0.834
1605 292 2 164 1 1 3 2 1 3 0.935
1606 292 2 165 1 1 2 1 1 2 0.65
1607 292 2 166 0 0 1 2 1 1 0.622
1608 292 2 167 1 1 0 2 1 0 0.507
1609 292 2 168 3 3 0 1 1 0 0.365
1610 292 2 169 2 2 0 2 0 3 1.251
1611 292 2 170 2 1 2 0 1 2 0.967
1612 292 2 171 2 2 2 1 1 2 1.106
1613 292 2 172 2 2 2 2 1 2 2.589
1614 292 2 173 3 1 1 0 1 1 0.845
1615 292 2 174 3 3 0 2 0 2 0.818
1616 292 2 175 0 1 1 0 0 2 0.861
1617 292 2 176 2 2 0 2 1 0 0.365
1618 292 2 177 2 2 0 2 1 0 0.243
1619 292 2 178 0 0 1 1 1 1 0.583
1620 292 2 179 0 0 1 1 1 1 0.383
1621 292 2 180 1 1 0 2 0 3 0.852
1622 292 2 181 1 1 2 2 1 2 0.644
1623 292 2 182 0 0 2 1 1 2 0.586
1624 292 2 183 1 1 1 1 1 1 1.089
1625 292 2 184 0 0 0 1 1 0 0.319
1626 292 2 185 0 0 2 2 1 2 0.718
1627 292 2 186 3 3 1 1 1 1 0.585
1628 292 2 187 2 2 2 1 1 2 0.465
1629 292 2 188 1 1 1 1 1 1 0.406
1630 292 2 189 0 0 2 1 1 2 0.612
1631 292 2 190 0 1 0 0 0 2 0.739
1632 292 2 191 2 1 2 0 0 3 0.785
1633 292 2 192 0 1 0 0 1 0 0.373
1634 292 2 193 3 3 3 2 0 2 1.107
1635 292 2 194 0 0 3 2 1 3 0.945
1636 292 2 195 0 0 0 2 1 0 0.323
1637 292 2 196 3 2 0 0 0 2 1.044
1638 292 2 197 1 1 2 2 1 2 0.557
1639 292 2 198 2 2 0 1 1 0 0.254
1640 292 2 199 1 1 0 2 1 0 0.351
1641 292 2 200 3 3 2 1 0 3 0.703
1642 292 2 201 0 2 0 0 1 0 0.375
1643 292 2 202 2 2 0 2 1 0 0.276
1644 292 2 203 3 3 0 1 0 3 1.343
1645 292 2 204 1 1 3 1 1 3 0.566
1646 292 2 205 3 1 2 0 0 3 0.918
1647 292 2 206 3 3 0 1 0 2 3.221
1648 292 2 207 1 1 1 2 0 2 0.617
1649 292 2 208 2 2 3 1 1 3 1.003
1650 292 2 209 3 3 1 2 0 2 0.77
1651 292 2 210 3 3 3 1 1 3 7.687
1652 292 2 211 1 2 2 0 0 1 1.208
1653 292 2 212 2 1 2 0 0 3 2.477
1654 292 2 213 1 1 0 1 1 0 0.309
1655 292 2 214 0 0 2 2 1 2 0.748
1656 292 2 215 3 0 2 0 0 0 0.998
1657 292 2 216 1 0 2 0 0 0 1.611
1658 292 2 217 3 3 0 2 1 0 0.526
1659 292 2 218 3 3 1 2 0 0 0.398
1660 292 2 219 3 3 1 1 1 1 0.224
1661 292 2 220 0 0 1 2 1 1 0.523
1662 292 2 221 1 1 3 1 1 3 0.461
1663 292 2 222 2 2 1 2 0 2 1.023
1664 292 2 223 2 0 2 0 0 1 0.386
1665 292 2 224 1 1 2 2 1 2 0.771
1666 292 2 225 3 3 1 1 0 3 1.356
1667 292 2 226 1 2 2 0 1 2 1.14
1668 292 2 227 1 1 0 1 1 0 0.464
1669 292 2 228 0 0 1 1 1 1 0.332
1670 292 2 229 2 1 2 0 1 2 2.357
1671 292 2 230 1 1 3 1 1 3 0.382
1672 292 2 231 3 2 1 0 0 2 0.71
1673 292 2 232 2 2 3 1 1 3 0.509
1674 292 2 233 0 1 0 0 0 3 0.752
1675 292 2 234 1 0 3 0 1 3 0.429
1676 292 2 235 0 0 1 2 0 3 0.617
1677 292 2 236 2 2 3 2 0 1 3.19
1678 292 2 237 1 0 3 0 1 3 0.636
1679 292 2 238 1 1 2 1 1 2 2.458
1680 292 2 239 1 2 0 0 1 0 0.663
1681 292 3 240 3 3 2 1 0 3 1.216
1682 292 3 241 1 1 1 2 1 1 0.346
1683 292 3 242 2 2 0 1 1 0 0.33
1684 292 3 243 2 3 1 0 1 1 0.395
1685 292 3 244 2 2 3 2 1 3 0.44
1686 292 3 245 0 0 1 2 1 1 0.235
1687 292 3 246 1 0 3 0 0 0 0.975
1688 292 3 247 0 0 3 2 1 3 0.579
1689 292 3 248 2 2 2 1 1 2 0.729
1690 292 3 249 2 2 3 2 1 3 0.482
1691 292 3 250 2 2 0 1 1 0 0.294
1692 292 3 251 2 2 1 1 1 1 0.4
1693 292 3 252 1 1 0 1 0 3 1.07
1694 292 3 253 1 0 2 0 0 1 0.608
1695 292 3 254 0 0 1 2 1 1 0.36
1696 292 3 255 3 3 3 1 1 3 1.184
1697 292 3 256 3 3 3 1 1 3 0.394
1698 292 3 257 0 1 2 0 1 2 0.761
1699 292 3 258 0 0 1 2 1 1 0.321
1700 292 3 259 1 1 0 2 0 3 0.667
1701 292 3 260 0 0 1 2 1 1 0.394
1702 292 3 261 2 2 3 1 1 3 0.409
1703 292 3 262 1 1 3 2 1 3 0.445
1704 292 3 263 0 0 3 1 1 3 0.386
1705 292 3 264 3 2 1 0 1 1 0.473
1706 292 3 265 1 0 2 0 0 1 0.709
1707 292 3 266 0 0 3 2 1 3 0.41
1708 292 3 267 1 1 1 2 1 1 0.462
1709 292 3 268 3 3 0 1 0 3 0.715
1710 292 3 269 0 0 2 1 0 0 0.754
1711 292 3 270 2 0 2 0 1 2 1.207
1712 292 3 271 1 1 2 2 1 2 0.727
1713 292 3 272 3 3 2 2 1 2 0.552
1714 292 3 273 2 2 1 2 1 1 0.399
1715 292 3 274 3 3 2 1 1 2 0.421
1716 292 3 275 0 0 0 2 0 3 0.816
1717 292 3 276 3 3 3 2 0 2 0.609
1718 292 3 277 2 2 2 1 0 0 1.148
1719 292 3 278 2 2 2 2 1 2 0.425
1720 292 3 279 1 1 3 1 1 3 0.599
1721 292 3 280 3 3 2 2 1 2 0.58
1722 292 3 281 3 0 0 0 1 0 0.365
1723 292 3 282 2 2 1 2 1 1 0.379
1724 292 3 283 2 2 1 2 1 1 1.416
1725 292 3 284 0 1 3 0 1 3 0.81
1726 292 3 285 3 3 3 2 1 3 1.248
1727 292 3 286 0 0 0 1 1 0 0.367
1728 292 3 287 2 0 2 0 0 0 0.696
1729 292 3 288 1 1 3 1 1 3 0.511
1730 292 3 289 1 1 2 1 0 1 0.386
1731 292 3 290 3 1 2 0 1 2 0.621
1732 292 3 291 0 0 1 2 1 1 0.418
1733 292 3 292 0 2 1 0 0 2 0.695
1734 292 3 293 2 2 2 1 1 2 0.439
1735 292 3 294 3 3 3 2 0 0 1.498
1736 292 3 295 3 3 0 2 0 2 0.746
1737 292 3 296 0 1 3 0 0 2 2.056
1738 292 3 297 1 1 1 2 1 1 0.389
1739 292 3 298 3 3 1 2 0 2 0.786
1740 292 3 299 2 1 1 0 1 1 1.357
1741 292 3 300 0 0 2 1 1 2 0.53
1742 292 3 301 3 3 3 1 1 3 1.316
1743 292 3 302 0 1 3 0 1 3 0.594
1744 292 3 303 0 0 3 1 1 3 0.482
1745 292 3 304 2 1 3 0 1 3 0.309
1746 292 3 305 3 0 3 0 0 0 0.871
1747 292 3 306 2 2 2 1 1 2 0.464
1748 292 3 307 2 3 2 0 0 3 0.62
1749 292 3 308 0 1 1 0 1 1 0.566
1750 292 3 309 1 2 2 0 1 2 0.551
1751 292 3 310 3 3 0 2 1 0 0.446
1752 292 3 311 1 1 1 2 1 1 0.377
1753 292 3 312 1 1 0 1 1 0 0.216
1754 292 3 313 2 0 3 0 1 3 0.381
1755 292 3 314 1 1 3 1 1 3 0.293
1756 292 3 315 3 3 1 1 0 3 0.743
1757 292 3 316 0 0 2 2 1 2 0.443
1758 292 3 317 0 0 0 2 1 0 0.461
1759 292 3 318 2 2 0 2 1 0 0.352
1760 292 3 319 2 2 0 2 1 0 0.254
1761 292 4 320 0 0 2 2 1 2 1.401
1762 292 4 321 1 1 3 1 1 3 0.532
1763 292 4 322 0 2 0 0 0 2 0.733
1764 292 4 323 2 2 0 1 1 0 0.372
1765 292 4 324 3 3 0 1 1 0 0.371
1766 292 4 325 2 2 3 2 1 3 0.408
1767 292 4 326 0 0 1 2 1 1 1.013
1768 292 4 327 2 2 3 2 0 2 0.675
1769 292 4 328 2 2 1 1 1 1 0.396
1770 292 4 329 2 2 2 2 1 2 0.505
1771 292 4 330 3 3 1 2 1 1 0.793
1772 292 4 331 0 1 2 0 0 3 1.226
1773 292 4 332 1 1 2 2 1 2 0.557
1774 292 4 333 2 2 3 2 1 3 0.507
1775 292 4 334 2 2 2 2 0 3 0.66
1776 292 4 335 3 3 1 1 1 1 0.333
1777 292 4 336 0 0 3 1 1 3 0.39
1778 292 4 337 0 0 0 2 1 0 0.69
1779 292 4 338 0 0 0 2 1 0 0.556
1780 292 4 339 2 2 3 1 1 3 0.317
1781 292 4 340 2 3 1 0 0 3 0.559
1782 292 4 341 0 1 3 0 1 3 0.411
1783 292 4 342 0 0 1 2 0 0 0.519
1784 292 4 343 1 1 2 2 0 3 0.683
1785 292 4 344 2 3 3 0 1 3 0.451
1786 292 4 345 0 2 1 0 1 1 0.344
1787 292 4 346 0 0 0 1 1 0 0.216
1788 292 4 347 0 0 1 1 0 0 0.149
1789 292 4 348 1 1 1 2 1 1 0.406
1790 292 4 349 0 1 0 0 0 3 0.573
1791 292 4 350 0 0 2 1 1 2 0.753
1792 292 4 351 3 3 1 1 0 3 0.754
1793 292 4 352 2 2 1 1 1 1 1.08
1794 292 4 353 0 0 1 2 1 1 0.388
1795 292 4 354 2 2 1 1 0 0 0.915
1796 292 4 355 0 0 0 1 1 0 0.25
1797 292 4 356 1 1 3 2 1 3 0.413
1798 292 4 357 2 0 3 0 0 0 0.435
1799 292 4 358 0 1 2 0 1 2 0.443
1800 292 4 359 2 2 0 1 1 0 0.392
1801 292 4 360 1 1 2 2 1 2 0.509
1802 292 4 361 3 3 3 1 0 0 2.367
1803 292 4 362 3 3 2 2 0 3 0.873
1804 292 4 363 0 0 3 2 1 3 0.456
1805 292 4 364 1 1 3 2 1 3 0.643
1806 292 4 365 1 1 0 2 1 0 0.415
1807 292 4 366 1 1 0 2 1 0 0.315
1808 292 4 367 3 3 0 1 1 0 0.301
1809 292 4 368 3 3 2 2 1 2 0.573
1810 292 4 369 0 0 2 1 1 2 0.574
1811 292 4 370 1 2 0 0 1 0 0.342
1812 292 4 371 0 0 1 1 1 1 0.703
1813 292 4 372 3 0 2 0 0 0 0.818
1814 292 4 373 1 1 0 1 1 0 0.366
1815 292 4 374 2 0 1 0 1 1 0.478
1816 292 4 375 2 0 3 0 1 3 0.458
1817 292 4 376 2 2 1 2 1 1 0.617
1818 292 4 377 3 3 0 1 0 3 0.864
1819 292 4 378 2 2 0 2 1 0 0.76
1820 292 4 379 1 1 3 2 1 3 0.559
1821 292 4 380 3 0 0 0 1 0 0.272
1822 292 4 381 1 1 3 2 1 3 0.457
1823 292 4 382 1 1 3 1 1 3 0.23
1824 292 4 383 3 3 0 1 1 0 0.29
1825 292 4 384 0 1 0 0 1 0 0.364
1826 292 4 385 3 3 3 2 1 3 0.426
1827 292 4 386 0 0 0 1 1 0 0.176
1828 292 4 387 2 1 2 0 0 1 0.398
1829 292 4 388 1 2 1 0 0 0 0.736
1830 292 4 389 3 3 2 2 1 2 0.404
1831 292 4 390 3 0 2 0 1 2 0.458
1832 292 4 391 0 1 3 0 1 3 0.614
1833 292 4 392 1 1 3 1 1 3 0.373
1834 292 4 393 2 2 0 1 1 0 0.26
1835 292 4 394 2 2 2 1 1 2 0.456
1836 292 4 395 1 2 3 0 0 0 0.724
1837 292 4 396 1 2 2 0 1 2 0.531
1838 292 4 397 1 0 0 0 1 0 0.285
1839 292 4 398 1 1 3 1 1 3 0.376
1840 292 4 399 0 1 3 0 1 3 0.335
1841 292 5 400 0 0 0 2 1 0 0.333
1842 292 5 401 0 0 2 1 0 1 0.31
1843 292 5 402 2 3 1 0 1 1 0.49
1844 292 5 403 1 2 3 0 0 2 0.862
1845 292 5 404 3 2 2 0 1 2 0.656
1846 292 5 405 2 2 1 2 1 1 0.608
1847 292 5 406 0 1 0 0 0 2 1.775
1848 292 5 407 1 1 3 1 1 3 0.464
1849 292 5 408 0 0 3 2 1 3 1.994
1850 292 5 409 3 2 2 0 1 2 0.359
1851 292 5 410 2 2 2 2 1 2 0.381
1852 292 5 411 2 2 3 2 1 3 0.499
1853 292 5 412 0 0 0 1 1 0 0.198
1854 292 5 413 1 1 3 1 1 3 0.284
1855 292 5 414 1 1 2 2 1 2 0.445
1856 292 5 415 3 3 0 2 0 2 0.856
1857 292 5 416 3 3 1 1 1 1 0.442
1858 292 5 417 2 0 3 0 0 0 1.535
1859 292 5 418 1 1 0 2 1 0 0.694
1860 292 5 419 0 0 1 1 1 1 0.362
1861 292 5 420 3 2 3 0 1 3 2.203
1862 292 5 421 1 1 3 1 1 3 0.353
1863 292 5 422 2 2 3 1 1 3 0.337
1864 292 5 423 2 2 3 2 1 3 0.216
1865 292 5 424 1 2 1 0 1 1 0.629
1866 292 5 425 1 1 3 1 1 3 0.228
1867 292 5 426 1 1 0 1 1 0 0.4
1868 292 5 427 0 2 2 0 0 0 0.919
1869 292 5 428 0 2 1 0 1 1 0.27
1870 292 5 429 0 0 2 1 1 2 0.642
1871 292 5 430 2 1 3 0 1 3 0.632
1872 292 5 431 2 2 0 2 0 3 1.332
1873 292 5 432 3 3 1 1 0 3 0.876
1874 292 5 433 1 1 2 2 1 2 4.867
1875 292 5 434 0 0 1 2 1 1 0.415
1876 292 5 435 3 3 3 1 1 3 0.677
1877 292 5 436 3 3 1 1 0 3 0.538
1878 292 5 437 0 0 3 1 1 3 0.455
1879 292 5 438 2 2 3 1 0 0 0.78
1880 292 5 439 0 0 1 1 1 1 0.392
1881 292 5 440 1 1 2 2 1 2 0.661
1882 292 5 441 2 1 3 0 1 3 2.443
1883 292 5 442 0 0 0 1 1 0 0.28
1884 292 5 443 3 1 3 0 1 3 0.459
1885 292 5 444 0 0 1 2 1 1 1.333
1886 292 5 445 2 2 1 1 1 1 0.346
1887 292 5 446 1 1 3 1 1 3 0.387
1888 292 5 447 2 2 1 2 1 1 0.392
1889 292 5 448 1 1 0 2 1 0 0.308
1890 292 5 449 2 2 2 1 1 2 0.518
1891 292 5 450 3 3 1 2 1 1 0.607
1892 292 5 451 3 3 2 2 0 1 0.564
1893 292 5 452 1 1 1 1 1 1 0.344
1894 292 5 453 1 1 3 2 1 3 0.391
1895 292 5 454 3 3 1 2 0 2 0.628
1896 292 5 455 2 0 1 0 1 1 0.318
1897 292 5 456 1 1 3 2 1 3 0.373
1898 292 5 457 0 0 2 1 1 2 0.54
1899 292 5 458 0 0 1 1 1 1 0.493
1900 292 5 459 1 2 1 0 1 1 0.696
1901 292 5 460 2 2 2 2 1 2 0.458
1902 292 5 461 1 2 0 0 1 0 0.431
1903 292 5 462 0 0 0 2 1 0 0.442
1904 292 5 463 0 0 0 2 1 0 0.285
1905 292 5 464 3 3 2 1 0 3 0.672
1906 292 5 465 0 0 3 1 1 3 0.384
1907 292 5 466 2 1 0 0 1 0 0.295
1908 292 5 467 2 3 2 0 0 3 0.593
1909 292 5 468 3 3 1 2 0 2 2.195
1910 292 5 469 1 1 0 2 1 0 0.353
1911 292 5 470 0 2 3 0 1 3 0.649
1912 292 5 471 0 1 3 0 1 3 0.59
1913 292 5 472 3 3 2 1 1 2 0.533
1914 292 5 473 0 0 3 1 1 3 0.367
1915 292 5 474 3 0 3 0 1 3 0.599
1916 292 5 475 1 0 3 0 1 3 0.375
1917 292 5 476 0 0 2 1 1 2 0.541
1918 292 5 477 2 2 0 2 1 0 1.421
1919 292 5 478 0 1 3 0 1 3 1.767
1920 292 5 479 0 2 2 0 1 2 0.652
1921 294 0 0 3 3 2 1 0 3 2.737
1922 294 0 1 3 0 1 0 1 1 2.475
1923 294 0 2 0 1 3 0 1 3 1.114
1924 294 0 3 1 1 2 2 1 2 1.328
1925 294 0 4 3 3 3 2 0 1 1.692
1926 294 0 5 0 0 3 1 1 3 1.228
1927 294 0 6 0 1 1 0 0 3 0.727
1928 294 0 7 2 2 2 1 0 1 1.289
1929 294 0 8 0 1 2 0 1 2 0.934
1930 294 0 9 0 1 1 0 1 1 1.756
1931 294 0 10 0 0 3 1 1 3 0.805
1932 294 0 11 3 3 1 2 0 2 1.59
1933 294 0 12 1 1 0 2 0 1 1.327
1934 294 0 13 0 0 1 2 1 1 0.881
1935 294 0 14 3 3 0 2 1 0 0.703
1936 294 0 15 0 0 1 1 1 1 0.701
1937 294 0 16 3 2 3 0 1 3 0.972
1938 294 0 17 2 2 3 1 0 1 1.585
1939 294 0 18 2 3 3 0 0 2 5.06
1940 294 0 19 2 2 2 2 0 1 0.848
1941 294 0 20 1 1 1 1 1 1 1.022
1942 294 0 21 1 1 3 1 1 3 0.897
1943 294 0 22 0 0 3 2 1 3 0.623
1944 294 0 23 3 2 2 0 0 3 0.704
1945 294 0 24 0 2 1 0 0 3 0.978
1946 294 0 25 0 1 1 0 1 1 2.331
1947 294 0 26 3 1 1 0 1 1 1.071
1948 294 0 27 2 2 1 2 1 1 0.615
1949 294 0 28 1 2 2 0 0 1 0.521
1950 294 0 29 1 1 0 1 1 0 0.881
1951 294 0 30 0 0 2 2 0 1 1.248
1952 294 0 31 3 3 1 2 1 1 0.772
1953 294 0 32 1 1 3 2 1 3 0.983
1954 294 0 33 0 0 2 1 1 2 0.827
1955 294 0 34 0 0 2 2 1 2 0.907
1956 294 0 35 0 1 3 0 1 3 1.843
1957 294 0 36 0 0 2 1 1 2 0.697
1958 294 0 37 2 1 3 0 0 1 1.08
1959 294 0 38 2 3 1 0 1 1 2.141
1960 294 0 39 0 1 0 0 0 2 1.193
1961 294 0 40 1 1 2 1 1 2 1.209
1962 294 0 41 3 3 1 1 0 2 1.702
1963 294 0 42 1 1 3 2 1 3 0.938
1964 294 0 43 3 3 3 1 0 2 0.769
1965 294 0 44 2 2 1 1 1 1 0.704
1966 294 0 45 0 0 1 2 1 1 0.773
1967 294 0 46 0 2 2 0 1 2 1.121
1968 294 0 47 3 3 2 2 1 2 1.191
1969 294 0 48 3 2 3 0 0 2 0.98
1970 294 0 49 3 3 0 1 1 0 0.7
1971 294 0 50 3 1 3 0 0 1 0.763
1972 294 0 51 0 0 0 1 1 0 0.747
1973 294 0 52 3 2 1 0 1 1 2.233
1974 294 0 53 0 0 0 1 1 0 0.721
1975 294 0 54 1 1 0 2 0 1 0.964
1976 294 0 55 2 2 2 1 0 1 2.11
1977 294 0 56 3 3 2 1 1 2 1.15
1978 294 0 57 1 1 0 2 1 0 0.962
1979 294 0 58 0 2 0 0 0 1 1.656
1980 294 0 59 3 2 0 0 0 1 1.56
1981 294 0 60 0 0 2 2 1 2 0.818
1982 294 0 61 1 1 3 2 1 3 0.898
1983 294 0 62 2 2 0 2 1 0 0.828
1984 294 0 63 1 1 2 1 1 2 0.998
1985 294 0 64 0 0 2 1 1 2 0.619
1986 294 0 65 3 3 1 2 1 1 0.53
1987 294 0 66 1 1 3 2 1 3 1.053
1988 294 0 67 0 2 3 0 0 2 1.439
1989 294 0 68 1 1 3 1 1 3 0.567
1990 294 0 69 2 2 2 2 0 1 1.488
1991 294 0 70 0 2 3 0 0 2 1.959
1992 294 0 71 0 1 1 0 0 0 1.996
1993 294 0 72 0 1 1 0 1 1 1.472
1994 294 0 73 1 2 3 0 0 2 0.931
1995 294 0 74 3 0 3 0 0 2 0.765
1996 294 0 75 2 0 3 0 0 0 0.685
1997 294 0 76 1 1 1 1 1 1 0.704
1998 294 0 77 2 2 3 2 0 0 0.916
1999 294 0 78 1 1 3 2 0 2 1.669
2000 294 0 79 1 2 3 0 0 1 1.268
2001 294 1 80 2 1 1 0 1 1 3.491
2002 294 1 81 2 2 0 2 1 0 1.411
2003 294 1 82 0 0 3 2 0 2 0.543
2004 294 1 83 1 0 1 0 0 2 1.191
2005 294 1 84 3 3 3 2 1 3 1.086
2006 294 1 85 2 0 1 0 1 1 1.167
2007 294 1 86 2 2 0 2 0 1 1.075
2008 294 1 87 2 2 3 1 0 2 0.904
2009 294 1 88 0 0 2 2 1 2 1.448
2010 294 1 89 2 2 3 1 0 1 1.852
2011 294 1 90 2 3 0 0 0 1 0.805
2012 294 1 91 1 2 1 0 1 1 1.028
2013 294 1 92 0 0 2 1 1 2 0.871
2014 294 1 93 2 3 1 0 0 2 1.584
2015 294 1 94 1 1 3 2 1 3 1.064
2016 294 1 95 0 0 3 1 1 3 0.458
2017 294 1 96 3 3 0 2 0 1 0.632
2018 294 1 97 1 1 2 1 0 3 1.181
2019 294 1 98 2 2 1 1 0 0 0.99
2020 294 1 99 3 2 2 0 1 2 0.934
2021 294 1 100 2 1 1 0 1 1 2.045
2022 294 1 101 3 3 1 2 0 3 1.393
2023 294 1 102 1 1 3 2 0 1 1.105
2024 294 1 103 1 1 0 1 1 0 0.788
2025 294 1 104 2 2 2 2 0 1 1.542
2026 294 1 105 2 2 0 1 1 0 0.81
2027 294 1 106 0 0 2 2 0 1 0.827
2028 294 1 107 2 1 2 0 0 3 1.977
2029 294 1 108 3 0 2 0 0 3 1.406
2030 294 1 109 2 2 2 1 0 1 0.646
2031 294 1 110 2 2 2 1 1 2 0.763
2032 294 1 111 1 0 2 0 0 3 0.744
2033 294 1 112 3 3 0 1 0 2 0.729
2034 294 1 113 1 1 1 2 0 0 0.976
2035 294 1 114 2 2 2 1 0 1 0.569
2036 294 1 115 1 1 1 1 0 2 1.088
2037 294 1 116 2 3 0 0 1 0 1.108
2038 294 1 117 3 3 1 1 1 1 0.452
2039 294 1 118 0 0 2 2 0 0 1.186
2040 294 1 119 0 0 2 2 0 0 0.537
2041 294 1 120 3 3 0 2 1 0 0.679
2042 294 1 121 2 2 0 2 1 0 0.86
2043 294 1 122 1 1 2 2 1 2 0.763
2044 294 1 123 2 2 0 2 1 0 0.622
2045 294 1 124 2 2 1 2 0 0 0.549
2046 294 1 125 0 0 0 1 1 0 0.381
2047 294 1 126 1 1 3 1 0 2 0.215
2048 294 1 127 1 1 2 1 1 2 2.234
2049 294 1 128 1 1 0 1 1 0 0.65
2050 294 1 129 0 2 2 0 1 2 0.874
2051 294 1 130 0 1 0 0 0 1 1.251
2052 294 1 131 2 3 0 0 1 0 1.042
2053 294 1 132 1 1 2 2 0 3 1.05
2054 294 1 133 1 1 0 2 1 0 0.726
2055 294 1 134 3 3 2 2 1 2 1.018
2056 294 1 135 2 2 0 2 0 1 0.867
2057 294 1 136 3 3 1 2 0 0 0.806
2058 294 1 137 1 1 1 2 1 1 0.666
2059 294 1 138 2 2 0 2 1 0 0.72
2060 294 1 139 3 3 0 1 1 0 0.638
2061 294 1 140 1 1 1 1 1 1 0.687
2062 294 1 141 3 0 1 0 0 0 0.83
2063 294 1 142 2 2 2 1 1 2 0.764
2064 294 1 143 0 0 3 1 1 3 0.76
2065 294 1 144 0 2 3 0 0 1 1.029
2066 294 1 145 3 2 3 0 1 3 0.94
2067 294 1 146 2 2 3 2 1 3 3.416
2068 294 1 147 1 1 0 2 0 3 0.849
2069 294 1 148 1 1 0 1 1 0 0.603
2070 294 1 149 0 1 1 0 1 1 1.101
2071 294 1 150 3 3 3 2 1 3 0.723
2072 294 1 151 2 3 1 0 0 3 1.201
2073 294 1 152 0 1 2 0 0 3 1.026
2074 294 1 153 1 1 3 2 1 3 0.207
2075 294 1 154 2 2 3 2 1 3 0.373
2076 294 1 155 3 3 1 2 0 3 0.517
2077 294 1 156 3 1 0 0 0 3 0.654
2078 294 1 157 1 1 2 2 1 2 0.52
2079 294 1 158 1 0 2 0 1 2 0.686
2080 294 1 159 3 3 2 2 1 2 0.435
2081 294 2 160 2 2 1 1 0 2 1.16
2082 294 2 161 3 3 1 2 0 2 0.576
2083 294 2 162 0 0 1 1 1 1 1.063
2084 294 2 163 1 1 2 2 1 2 1.247
2085 294 2 164 2 2 3 2 1 3 1.057
2086 294 2 165 1 1 3 1 1 3 1.459
2087 294 2 166 1 1 3 2 1 3 0.94
2088 294 2 167 1 2 1 0 1 1 0.995
2089 294 2 168 1 1 1 2 1 1 0.877
2090 294 2 169 3 0 0 0 1 0 0.934
2091 294 2 170 1 1 1 1 1 1 0.668
2092 294 2 171 0 0 0 1 0 1 1.276
2093 294 2 172 3 3 0 2 0 3 0.958
2094 294 2 173 0 0 3 2 1 3 3.518
2095 294 2 174 0 0 3 2 1 3 1.341
2096 294 2 175 0 0 3 2 1 3 0.795
2097 294 2 176 1 1 0 1 0 3 0.855
2098 294 2 177 1 1 2 1 1 2 0.628
2099 294 2 178 2 2 2 2 1 2 0.747
2100 294 2 179 3 3 3 1 1 3 1
2101 294 2 180 2 2 3 1 1 3 0.653
2102 294 2 181 3 3 3 2 0 2 0.741
2103 294 2 182 1 1 2 1 1 2 0.31
2104 294 2 183 3 1 0 0 1 0 1.219
2105 294 2 184 0 0 2 2 1 2 0.725
2106 294 2 185 2 2 2 2 1 2 1.321
2107 294 2 186 0 0 3 1 1 3 0.689
2108 294 2 187 2 2 3 1 1 3 7.2
2109 294 2 188 1 1 2 1 1 2 1.158
2110 294 2 189 3 3 1 2 1 1 0.763
2111 294 2 190 1 1 3 1 1 3 0.695
2112 294 2 191 0 1 2 0 0 0 0.998
2113 294 2 192 2 2 0 2 1 0 0.644
2114 294 2 193 1 1 0 1 0 1 1.013
2115 294 2 194 3 3 2 1 1 2 0.54
2116 294 2 195 2 3 3 0 0 1 0.881
2117 294 2 196 2 3 0 0 1 0 1.005
2118 294 2 197 2 2 3 2 0 0 0.679
2119 294 2 198 3 0 2 0 1 2 0.697
2120 294 2 199 1 2 2 0 1 2 0.808
2121 294 2 200 1 1 3 1 0 2 0.643
2122 294 2 201 2 2 1 2 1 1 0.893
2123 294 2 202 3 3 1 1 1 1 0.773
2124 294 2 203 3 3 0 2 1 0 0.84
2125 294 2 204 1 1 0 1 1 0 0.593
2126 294 2 205 0 0 3 1 1 3 0.836
2127 294 2 206 1 1 0 1 1 0 0.414
2128 294 2 207 0 1 3 0 0 0 0.631
2129 294 2 208 3 3 3 1 1 3 0.7
2130 294 2 209 2 2 3 1 1 3 0.443
2131 294 2 210 1 2 1 0 1 1 0.835
2132 294 2 211 1 2 3 0 0 1 0.637
2133 294 2 212 3 2 2 0 0 0 1.057
2134 294 2 213 1 1 3 1 1 3 0.247
2135 294 2 214 2 2 3 1 0 1 0.95
2136 294 2 215 1 1 2 2 1 2 0.773
2137 294 2 216 1 2 1 0 1 1 0.577
2138 294 2 217 1 1 3 1 0 2 0.404
2139 294 2 218 3 0 3 0 0 0 1.057
2140 294 2 219 2 2 3 1 1 3 0.791
2141 294 2 220 3 3 1 2 1 1 0.728
2142 294 2 221 0 2 1 0 1 1 0.806
2143 294 2 222 3 3 1 1 1 1 0.465
2144 294 2 223 3 2 0 0 1 0 0.841
2145 294 2 224 3 1 0 0 1 0 0.739
2146 294 2 225 0 0 2 1 1 2 0.688
2147 294 2 226 1 1 1 1 0 3 0.783
2148 294 2 227 1 1 2 2 1 2 0.644
2149 294 2 228 2 2 0 2 1 0 0.539
2150 294 2 229 3 2 1 0 1 1 0.67
2151 294 2 230 1 1 1 1 1 1 0.414
2152 294 2 231 2 2 2 1 0 1 0.327
2153 294 2 232 3 3 0 2 0 1 0.653
2154 294 2 233 3 3 3 1 1 3 0.609
2155 294 2 234 3 3 0 2 1 0 0.617
2156 294 2 235 3 3 0 2 1 0 0.528
2157 294 2 236 0 0 2 1 1 2 0.693
2158 294 2 237 0 0 2 1 1 2 0.5
2159 294 2 238 2 1 1 0 0 3 1.146
2160 294 2 239 2 2 1 2 1 1 0.851
2161 294 3 240 0 2 3 0 0 0 1.113
2162 294 3 241 1 1 2 2 1 2 0.483
2163 294 3 242 0 0 0 1 1 0 0.601
2164 294 3 243 2 2 0 2 0 1 0.721
2165 294 3 244 3 3 0 1 1 0 0.547
2166 294 3 245 3 0 3 0 0 0 0.695
2167 294 3 246 2 2 1 2 1 1 0.608
2168 294 3 247 2 2 2 2 0 1 0.44
2169 294 3 248 2 0 0 0 0 1 0.403
2170 294 3 249 1 0 3 0 0 0 0.592
2171 294 3 250 3 3 0 1 1 0 0.551
2172 294 3 251 0 0 0 2 1 0 0.417
2173 294 3 252 3 3 3 1 1 3 0.714
2174 294 3 253 0 0 2 2 1 2 0.926
2175 294 3 254 1 1 2 2 1 2 0.843
2176 294 3 255 2 2 2 1 1 2 0.869
2177 294 3 256 2 2 2 1 1 2 0.637
2178 294 3 257 2 2 2 1 1 2 0.43
2179 294 3 258 2 2 0 2 0 2 0.493
2180 294 3 259 3 3 3 1 1 3 0.631
2181 294 3 260 2 2 3 2 1 3 0.654
2182 294 3 261 1 1 1 2 1 1 0.724
2183 294 3 262 1 1 2 2 1 2 0.632
2184 294 3 263 1 1 3 1 1 3 0.681
2185 294 3 264 3 1 0 0 1 0 0.569
2186 294 3 265 1 0 3 0 1 3 0.716
2187 294 3 266 2 0 2 0 0 3 1.978
2188 294 3 267 3 3 2 2 1 2 0.853
2189 294 3 268 1 1 3 1 1 3 0.718
2190 294 3 269 1 1 1 1 1 1 0.828
2191 294 3 270 3 0 3 0 0 0 1.078
2192 294 3 271 1 1 0 1 1 0 0.571
2193 294 3 272 3 2 3 0 1 3 0.751
2194 294 3 273 2 2 0 1 1 0 0.364
2195 294 3 274 1 0 2 0 0 1 0.791
2196 294 3 275 2 1 3 0 1 3 0.63
2197 294 3 276 0 0 2 1 1 2 0.744
2198 294 3 277 2 2 1 1 1 1 0.773
2199 294 3 278 2 2 1 1 1 1 0.449
2200 294 3 279 1 1 0 1 1 0 0.409
2201 294 3 280 1 1 0 1 1 0 0.291
2202 294 3 281 2 0 1 0 1 1 0.432
2203 294 3 282 0 0 0 2 0 1 0.559
2204 294 3 283 2 2 0 1 1 0 0.582
2205 294 3 284 1 2 0 0 1 0 0.425
2206 294 3 285 2 2 3 2 1 3 0.488
2207 294 3 286 1 1 3 2 1 3 0.324
2208 294 3 287 3 0 3 0 1 3 0.432
2209 294 3 288 0 0 2 1 1 2 1.017
2210 294 3 289 2 2 2 1 1 2 0.828
2211 294 3 290 1 1 1 2 1 1 0.828
2212 294 3 291 2 2 3 1 1 3 0.599
2213 294 3 292 0 0 1 1 1 1 0.681
2214 294 3 293 3 0 2 0 0 1 0.584
2215 294 3 294 1 1 1 1 1 1 0.383
2216 294 3 295 1 1 1 2 1 1 0.271
2217 294 3 296 2 2 3 1 1 3 0.669
2218 294 3 297 2 2 0 2 1 0 0.419
2219 294 3 298 0 1 3 0 0 1 1.516
2220 294 3 299 2 2 3 1 1 3 0.449
2221 294 3 300 3 3 0 1 0 3 0.761
2222 294 3 301 2 2 3 1 1 3 0.297
2223 294 3 302 0 0 1 2 1 1 0.748
2224 294 3 303 0 0 1 2 1 1 0.416
2225 294 3 304 0 0 2 2 1 2 0.783
2226 294 3 305 3 3 3 1 1 3 0.714
2227 294 3 306 3 3 2 2 0 3 0.927
2228 294 3 307 1 0 1 0 0 2 1.081
2229 294 3 308 3 3 1 1 1 1 0.622
2230 294 3 309 0 0 1 2 1 1 0.773
2231 294 3 310 2 2 1 2 1 1 0.407
2232 294 3 311 1 1 1 1 1 1 0.352
2233 294 3 312 1 1 2 2 1 2 0.754
2234 294 3 313 1 2 3 0 0 1 0.847
2235 294 3 314 3 1 1 0 0 3 0.828
2236 294 3 315 2 2 0 1 1 0 0.393
2237 294 3 316 1 1 2 2 0 3 0.489
2238 294 3 317 2 2 3 2 1 3 0.713
2239 294 3 318 0 1 3 0 0 2 1.527
2240 294 3 319 3 3 3 1 1 3 1.533
2241 294 4 320 3 3 2 1 0 0 1.014
2242 294 4 321 0 0 2 1 1 2 0.862
2243 294 4 322 0 0 3 2 1 3 1.293
2244 294 4 323 3 3 2 2 0 0 1.085
2245 294 4 324 0 1 2 0 1 2 0.977
2246 294 4 325 1 1 0 1 1 0 0.582
2247 294 4 326 3 1 1 0 1 1 0.841
2248 294 4 327 3 2 0 0 1 0 0.499
2249 294 4 328 0 0 2 2 1 2 0.879
2250 294 4 329 1 2 2 0 0 1 0.744
2251 294 4 330 2 2 2 2 0 1 0.479
2252 294 4 331 1 0 1 0 1 1 0.76
2253 294 4 332 3 0 0 0 1 0 0.725
2254 294 4 333 0 0 1 2 1 1 0.425
2255 294 4 334 2 2 1 1 1 1 0.321
2256 294 4 335 0 0 3 2 1 3 1.811
2257 294 4 336 0 1 2 0 0 1 0.922
2258 294 4 337 0 0 1 2 1 1 0.634
2259 294 4 338 2 0 3 0 0 1 0.635
2260 294 4 339 0 2 3 0 0 0 1.504
2261 294 4 340 0 0 3 1 1 3 0.741
2262 294 4 341 3 3 0 2 1 0 0.681
2263 294 4 342 0 0 3 2 1 3 0.798
2264 294 4 343 1 0 3 0 0 1 0.857
2265 294 4 344 0 0 3 2 1 3 0.716
2266 294 4 345 0 0 1 2 1 1 0.816
2267 294 4 346 2 1 3 0 1 3 0.474
2268 294 4 347 0 0 1 2 1 1 0.519
2269 294 4 348 3 3 0 1 1 0 0.396
2270 294 4 349 0 0 0 1 1 0 0.326
2271 294 4 350 3 3 3 1 1 3 0.578
2272 294 4 351 1 1 2 2 1 2 0.763
2273 294 4 352 3 1 3 0 0 2 0.84
2274 294 4 353 3 3 0 2 0 1 0.427
2275 294 4 354 2 3 2 0 0 1 0.472
2276 294 4 355 2 0 2 0 0 0 0.546
2277 294 4 356 3 3 0 2 0 1 0.464
2278 294 4 357 2 2 3 1 0 1 0.395
2279 294 4 358 0 0 0 1 1 0 1.592
2280 294 4 359 2 2 0 1 1 0 0.504
2281 294 4 360 3 3 1 1 1 1 1.757
2282 294 4 361 1 1 3 2 1 3 1.212
2283 294 4 362 0 1 3 0 1 3 0.425
2284 294 4 363 2 2 2 1 1 2 0.978
2285 294 4 364 3 2 0 0 0 2 1.047
2286 294 4 365 2 2 3 1 1 3 0.637
2287 294 4 366 3 2 1 0 0 2 1.198
2288 294 4 367 3 3 2 2 1 2 0.66
2289 294 4 368 2 2 2 1 1 2 0.58
2290 294 4 369 1 1 0 2 1 0 0.445
2291 294 4 370 1 1 3 2 0 0 0.667
2292 294 4 371 2 3 1 0 1 1 0.622
2293 294 4 372 0 2 0 0 0 1 0.608
2294 294 4 373 1 2 1 0 1 1 0.293
2295 294 4 374 0 0 0 2 1 0 0.313
2296 294 4 375 1 1 2 2 0 3 0.732
2297 294 4 376 3 1 3 0 1 3 0.189
2298 294 4 377 2 2 2 2 0 1 0.484
2299 294 4 378 3 3 1 2 0 0 1.508
2300 294 4 379 3 3 2 2 1 2 1.055
2301 294 4 380 3 2 2 0 1 2 0.801
2302 294 4 381 1 2 0 0 1 0 0.828
2303 294 4 382 2 2 1 1 1 1 0.775
2304 294 4 383 2 2 0 1 1 0 0.739
2305 294 4 384 3 3 0 1 1 0 0.8
2306 294 4 385 0 0 0 1 1 0 0.955
2307 294 4 386 1 1 1 1 1 1 0.945
2308 294 4 387 3 3 2 2 0 0 0.893
2309 294 4 388 3 3 0 2 1 0 0.702
2310 294 4 389 0 0 2 1 1 2 0.78
2311 294 4 390 0 0 1 1 1 1 0.68
2312 294 4 391 3 3 0 2 1 0 0.734
2313 294 4 392 2 2 1 2 1 1 0.769
2314 294 4 393 3 0 0 0 1 0 1.198
2315 294 4 394 2 0 3 0 0 0 1.339
2316 294 4 395 1 1 3 2 1 3 0.892
2317 294 4 396 0 1 0 0 0 1 1.028
2318 294 4 397 0 0 2 1 1 2 0.731
2319 294 4 398 0 0 3 1 1 3 0.697
2320 294 4 399 3 2 3 0 0 1 0.952
2321 294 5 400 3 3 0 1 0 3 1.138
2322 294 5 401 1 2 0 0 1 0 0.757
2323 294 5 402 0 1 3 0 1 3 1.33
2324 294 5 403 2 3 1 0 1 1 0.842
2325 294 5 404 3 3 1 2 1 1 0.905
2326 294 5 405 1 1 2 1 1 2 0.72
2327 294 5 406 1 2 1 0 1 1 0.734
2328 294 5 407 1 1 1 2 1 1 0.738
2329 294 5 408 0 0 1 2 1 1 0.677
2330 294 5 409 1 1 3 2 1 3 0.779
2331 294 5 410 0 0 1 1 1 1 0.647
2332 294 5 411 3 2 3 0 1 3 0.712
2333 294 5 412 1 1 1 1 1 1 0.662
2334 294 5 413 0 1 1 0 0 3 1.591
2335 294 5 414 0 0 0 2 1 0 0.959
2336 294 5 415 3 3 2 1 1 2 0.805
2337 294 5 416 2 2 3 2 0 2 0.838
2338 294 5 417 3 3 0 2 1 0 1.513
2339 294 5 418 3 3 2 1 1 2 0.78
2340 294 5 419 3 1 2 0 1 2 1.08
2341 294 5 420 0 0 2 1 1 2 0.602
2342 294 5 421 3 3 0 2 0 2 1.01
2343 294 5 422 3 3 2 2 1 2 0.942
2344 294 5 423 3 2 1 0 1 1 0.884
2345 294 5 424 3 3 2 1 1 2 0.636
2346 294 5 425 2 2 0 1 1 0 0.605
2347 294 5 426 0 1 0 0 0 2 1.167
2348 294 5 427 0 0 0 1 1 0 0.72
2349 294 5 428 3 3 0 1 0 1 0.91
2350 294 5 429 0 1 3 0 1 3 1.321
2351 294 5 430 1 0 2 0 1 2 0.818
2352 294 5 431 2 2 1 2 1 1 0.834
2353 294 5 432 2 2 1 1 1 1 0.7
2354 294 5 433 0 2 0 0 0 1 0.827
2355 294 5 434 1 2 1 0 1 1 0.729
2356 294 5 435 3 3 2 2 1 2 0.716
2357 294 5 436 1 1 0 1 1 0 0.73
2358 294 5 437 2 2 1 1 1 1 0.673
2359 294 5 438 0 1 1 0 0 3 0.843
2360 294 5 439 1 1 1 1 1 1 0.568
2361 294 5 440 0 1 3 0 0 0 0.915
2362 294 5 441 1 1 3 1 1 3 0.734
2363 294 5 442 2 1 3 0 1 3 0.863
2364 294 5 443 0 0 0 2 1 0 0.686
2365 294 5 444 3 2 2 0 0 1 0.989
2366 294 5 445 2 2 1 1 1 1 0.629
2367 294 5 446 0 0 1 2 1 1 0.588
2368 294 5 447 2 2 1 2 1 1 0.757
2369 294 5 448 0 0 3 2 1 3 0.993
2370 294 5 449 3 3 0 2 1 0 0.843
2371 294 5 450 3 3 0 1 1 0 0.629
2372 294 5 451 2 2 2 2 0 1 0.941
2373 294 5 452 3 3 1 1 1 1 0.71
2374 294 5 453 0 0 1 1 1 1 0.677
2375 294 5 454 1 0 1 0 0 2 0.869
2376 294 5 455 2 2 2 2 1 2 0.871
2377 294 5 456 3 3 0 1 1 0 1.135
2378 294 5 457 2 0 3 0 1 3 0.974
2379 294 5 458 2 2 1 2 1 1 0.873
2380 294 5 459 2 2 0 1 1 0 0.546
2381 294 5 460 1 1 0 2 0 3 0.972
2382 294 5 461 3 3 2 2 1 2 0.955
2383 294 5 462 1 2 1 0 1 1 1.137
2384 294 5 463 0 0 2 1 1 2 0.624
2385 294 5 464 3 3 2 1 1 2 0.657
2386 294 5 465 2 1 2 0 0 3 0.801
2387 294 5 466 1 2 3 0 1 3 0.656
2388 294 5 467 1 1 1 2 1 1 0.71
2389 294 5 468 0 0 2 1 1 2 0.629
2390 294 5 469 0 1 2 0 0 3 0.838
2391 294 5 470 2 2 1 1 1 1 0.564
2392 294 5 471 1 1 2 2 1 2 0.638
2393 294 5 472 2 2 3 1 1 3 0.671
2394 294 5 473 2 2 3 2 1 3 0.725
2395 294 5 474 1 1 3 2 1 3 0.777
2396 294 5 475 0 0 2 2 1 2 0.875
2397 294 5 476 1 1 3 1 1 3 0.836
2398 294 5 477 2 2 1 1 1 1 0.798
2399 294 5 478 1 2 2 0 0 3 1.081
2400 294 5 479 0 1 1 0 1 1 6.477
