datID sessionID block trial WordInt ColorInt TrueInt Cong Correct Response rt
1 95 0 0 1 1 0 1 1 0 0.305
2 95 0 1 2 2 1 1 1 1 0.436
3 95 0 2 1 1 3 1 1 3 0.243
4 95 0 3 3 3 0 1 1 0 0.264
5 95 0 4 0 1 0 0 0 2 1.117
6 95 0 5 3 3 2 1 1 2 0.161
7 95 0 6 3 2 2 0 1 2 0.234
8 95 0 7 3 0 3 0 0 0 0.368
9 106 0 0 3 3 0 1 1 0 0.482
10 106 0 1 0 1 0 0 1 0 0.703
11 106 0 2 0 0 2 1 1 2 1.026
12 106 0 3 1 2 0 0 1 0 0.651
13 106 0 4 3 1 2 0 1 2 0.193
14 107 0 0 0 0 2 1 1 2 1.161
15 107 0 1 1 1 1 1 0 0 1.544
16 107 0 2 2 2 0 1 1 0 1.245
17 107 0 3 3 3 1 1 0 3 3.897
18 107 0 4 2 2 0 1 0 3 2.874
19 107 0 5 0 0 0 1 0 1 3.519
20 107 0 6 1 1 2 1 1 2 1.005
21 107 0 7 0 0 0 1 1 0 3.073
22 107 0 8 2 2 0 1 1 0 2.299
23 107 0 9 0 2 3 0 1 3 3.233
24 107 0 10 0 0 2 1 0 3 1.414
25 107 0 11 0 0 1 1 1 1 2.543
26 107 0 12 3 1 2 0 0 1 2.188
27 107 0 13 3 3 1 1 1 1 2.09
28 107 0 14 1 1 2 1 1 2 0.775
29 107 0 15 1 2 0 0 1 0 4.532
30 107 0 16 1 1 1 1 1 1 3.85
31 107 0 17 3 3 0 1 0 1 3.065
32 107 0 18 0 1 3 0 0 1 3.111
33 107 0 19 1 2 0 0 1 0 1.539
34 107 0 20 1 1 3 1 1 3 2.213
35 107 0 21 0 2 1 0 0 2 3.006
36 107 0 22 0 0 1 1 1 1 0.942
37 107 0 23 3 3 1 1 1 1 3.685
38 107 0 24 2 2 0 1 1 0 2.553
39 107 0 25 0 0 1 1 1 1 4.038
40 107 0 26 2 2 3 1 0 2 2.766
41 107 0 27 2 3 3 0 0 0 2.903
42 107 0 28 2 2 1 1 1 1 2.635
43 107 0 29 0 0 0 1 0 2 2.789
44 107 0 30 0 0 3 1 1 3 1.243
45 107 0 31 0 1 1 0 1 1 1.666
46 107 0 32 1 1 0 1 1 0 0.975
47 107 0 33 3 0 0 0 1 0 0.676
48 107 0 34 1 1 3 1 0 1 1.717
49 107 0 35 1 1 0 1 1 0 0.69
50 109 0 0 3 1 1 0 2 -1 2.486
51 109 0 1 1 1 0 1 0 2 2.402
52 109 0 2 3 3 0 1 1 0 1.278
53 109 0 3 0 1 1 0 0 0 2.959
54 109 0 4 1 1 2 1 1 2 1.414
55 109 0 5 1 2 0 0 0 2 2.706
56 109 0 6 0 0 1 1 1 1 1.955
57 109 0 7 1 2 2 0 2 -1 5.051
58 109 0 8 2 2 0 1 1 0 1.128
59 109 0 9 3 3 1 1 1 1 1.246
60 109 0 10 2 2 3 1 1 3 0.8
61 109 0 11 0 1 0 0 0 3 1.601
62 109 0 12 1 1 2 1 1 2 1.689
63 109 0 13 0 0 3 1 1 3 0.986
64 109 0 14 0 0 1 1 1 1 0.821
65 109 0 15 1 1 3 1 1 3 0.87
66 109 0 16 0 1 2 0 1 2 1.605
67 109 0 17 1 1 3 1 1 3 0.743
68 109 0 18 1 1 3 1 1 3 0.747
69 109 0 19 3 1 2 0 1 2 1.311
70 109 0 20 1 2 0 0 0 2 0.814
71 109 0 21 3 3 2 1 1 2 0.771
72 109 0 22 3 2 2 0 1 2 0.933
73 109 0 23 0 0 1 1 1 1 0.738
74 109 0 24 1 1 3 1 1 3 0.726
75 109 0 25 2 0 2 0 0 1 2.411
76 109 0 26 1 2 3 0 1 3 1.686
77 109 0 27 3 3 3 1 1 3 0.664
78 109 0 28 3 3 0 1 1 0 0.607
79 109 0 29 0 0 3 1 1 3 0.663
80 109 0 30 3 3 2 1 1 2 0.781
81 109 0 31 0 2 2 0 0 1 3.392
82 109 0 32 2 2 2 1 1 2 0.568
83 109 0 33 2 0 0 0 0 2 1.618
84 109 0 34 1 2 2 0 0 3 1.002
85 109 0 35 1 0 1 0 0 3 0.888
86 109 0 36 1 1 2 1 1 2 0.618
87 111 0 0 2 2 2 1 1 2 0.734
88 109 0 37 2 2 2 1 1 2 0.753
89 111 0 1 3 3 1 1 1 1 0.641
90 109 0 38 1 1 0 1 1 0 0.725
91 111 0 2 2 2 3 1 1 3 0.729
92 109 0 39 2 2 2 1 1 2 0.617
93 111 0 3 3 3 2 1 1 2 0.701
94 109 0 40 3 3 2 1 1 2 0.769
95 111 0 4 3 2 1 0 1 1 0.658
96 111 0 5 0 0 3 1 1 3 0.784
97 109 0 41 1 2 0 0 0 3 2.66
98 111 0 6 2 2 2 1 1 2 0.555
99 109 0 42 0 0 2 1 1 2 0.742
100 111 0 7 3 3 2 1 1 2 0.765
101 109 0 43 0 1 3 0 0 1 0.778
102 111 0 8 3 2 0 0 1 0 0.6
103 109 0 44 3 3 2 1 1 2 0.896
104 111 0 9 2 2 0 1 1 0 0.224
105 109 0 45 2 2 2 1 1 2 0.943
106 111 0 10 2 2 3 1 1 3 0.854
107 111 0 11 2 2 2 1 1 2 0.55
108 109 0 46 2 2 0 1 1 0 1.403
109 111 0 12 3 3 1 1 1 1 0.665
110 109 0 47 0 0 0 1 1 0 0.664
111 109 0 48 0 0 1 1 1 1 0.59
112 111 0 13 0 0 3 1 1 3 0.975
113 111 0 14 1 1 3 1 1 3 0.714
114 109 0 49 2 2 3 1 1 3 0.843
115 111 0 15 0 1 2 0 0 3 2.119
116 109 0 50 3 0 1 0 0 0 4.811
117 111 0 16 3 3 1 1 1 1 0.677
118 109 0 51 0 0 3 1 1 3 1.009
119 111 0 17 2 3 3 0 0 2 2.164
120 109 0 52 2 2 0 1 0 3 1.659
121 111 0 18 1 1 1 1 1 1 0.568
122 111 0 19 1 0 2 0 1 2 0.834
123 109 0 53 0 2 2 0 1 2 1.153
124 111 0 20 2 2 0 1 1 0 0.474
125 109 0 54 2 2 3 1 1 3 0.566
126 111 0 21 3 3 3 1 1 3 0.695
127 109 0 55 0 1 0 0 0 2 0.8
128 111 0 22 3 3 1 1 1 1 0.653
129 109 0 56 2 2 0 1 1 0 0.533
130 111 0 23 0 0 3 1 1 3 0.612
131 109 0 57 2 2 1 1 1 1 0.784
132 111 0 24 1 1 0 1 1 0 0.604
133 109 0 58 1 1 0 1 1 0 0.786
134 111 0 25 1 1 2 1 1 2 0.837
135 109 0 59 2 2 2 1 1 2 0.788
136 111 0 26 3 3 1 1 1 1 0.453
137 109 0 60 2 2 3 1 1 3 0.855
138 111 0 27 1 1 0 1 1 0 0.682
139 109 0 61 3 3 3 1 1 3 1.462
140 111 0 28 0 1 1 0 0 0 1.224
141 109 0 62 2 2 1 1 1 1 0.832
142 111 0 29 3 3 3 1 1 3 0.782
143 109 0 63 2 2 3 1 1 3 0.704
144 111 0 30 1 1 0 1 1 0 0.664
145 109 0 64 3 3 1 1 1 1 0.725
146 111 0 31 3 3 2 1 1 2 0.655
147 109 0 65 0 0 1 1 1 1 0.554
148 111 0 32 3 3 0 1 1 0 0.558
149 109 0 66 3 1 2 0 1 2 1.956
150 111 0 33 3 1 1 0 1 1 0.568
151 109 0 67 2 2 3 1 1 3 0.54
152 111 0 34 1 1 2 1 1 2 0.882
153 109 0 68 2 2 1 1 1 1 0.599
154 111 0 35 0 1 0 0 1 0 0.673
155 111 0 36 2 1 0 0 1 0 0.591
156 109 0 69 2 1 1 0 1 1 1.728
157 109 0 70 2 2 3 1 1 3 0.56
158 111 0 37 3 3 2 1 1 2 1.16
159 109 0 71 0 0 1 1 1 1 0.65
160 111 0 38 2 0 2 0 1 2 1.933
161 109 0 72 1 1 0 1 1 0 0.592
162 111 0 39 3 3 3 1 1 3 0.726
163 109 0 73 3 0 0 0 0 1 2.169
164 111 0 40 0 0 2 1 1 2 0.538
165 109 0 74 2 2 1 1 1 1 0.67
166 111 0 41 1 1 0 1 0 3 1.606
167 109 0 75 3 3 3 1 1 3 0.98
168 111 0 42 1 1 2 1 1 2 0.518
169 111 0 43 2 0 3 0 1 3 1.034
170 109 0 76 0 1 2 0 0 1 2.16
171 111 0 44 2 3 1 0 1 1 0.635
172 109 0 77 0 0 3 1 1 3 0.66
173 111 0 45 1 2 1 0 1 1 0.41
174 109 0 78 3 1 1 0 0 2 1.163
175 111 0 46 2 2 2 1 1 2 0.434
176 109 0 79 0 0 0 1 1 0 0.484
177 111 0 47 3 0 2 0 1 2 0.512
178 111 0 48 2 2 3 1 1 3 0.461
179 111 0 49 2 2 3 1 1 3 0.514
180 111 0 50 2 2 2 1 1 2 0.447
181 111 0 51 3 1 3 0 0 2 1.501
182 111 0 52 2 2 0 1 1 0 0.481
183 111 0 53 3 3 2 1 0 3 1.663
184 111 0 54 3 3 2 1 1 2 0.533
185 111 0 55 2 2 2 1 1 2 0.488
186 111 0 56 0 0 0 1 1 0 0.517
187 111 0 57 3 0 1 0 1 1 0.465
188 111 0 58 3 3 2 1 1 2 0.631
189 111 0 59 0 1 2 0 1 2 0.662
190 109 1 80 0 0 3 1 1 3 0.725
191 111 0 60 2 1 3 0 1 3 0.653
192 109 1 81 0 1 2 0 0 3 1.673
193 111 0 61 0 1 0 0 1 0 0.612
194 109 1 82 3 3 2 1 1 2 0.783
195 111 0 62 3 0 3 0 0 1 1.796
196 109 1 83 3 2 3 0 0 2 1.361
197 111 0 63 2 0 3 0 0 0 1.485
198 109 1 84 2 2 1 1 1 1 0.515
199 111 0 64 3 3 2 1 1 2 0.714
200 109 1 85 0 0 2 1 1 2 0.623
201 111 0 65 1 1 2 1 1 2 0.655
202 109 1 86 2 2 1 1 1 1 0.535
203 111 0 66 0 0 1 1 1 1 0.549
204 109 1 87 1 2 3 0 0 0 1.73
205 111 0 67 2 2 0 1 1 0 0.488
206 109 1 88 3 3 0 1 1 0 1.077
207 111 0 68 0 0 0 1 1 0 0.573
208 109 1 89 0 0 3 1 1 3 0.83
209 111 0 69 0 0 2 1 1 2 0.654
210 109 1 90 1 0 3 0 0 2 1.358
211 111 0 70 2 3 3 0 0 1 1.925
212 109 1 91 2 1 3 0 1 3 0.943
213 111 0 71 2 2 2 1 1 2 0.77
214 109 1 92 2 2 0 1 1 0 0.46
215 111 0 72 3 1 2 0 1 2 0.668
216 109 1 93 1 1 0 1 1 0 0.49
217 111 0 73 1 1 3 1 1 3 0.699
218 109 1 94 2 2 1 1 1 1 0.615
219 111 0 74 2 2 1 1 1 1 0.464
220 109 1 95 0 1 0 0 0 1 0.879
221 111 0 75 2 2 2 1 1 2 0.558
222 111 0 76 0 0 1 1 1 1 0.504
223 109 1 96 0 1 1 0 0 2 1.41
224 111 0 77 2 2 3 1 1 3 0.484
225 109 1 97 1 1 2 1 1 2 0.929
226 109 1 98 0 0 1 1 1 1 0.655
227 109 1 99 0 0 3 1 1 3 0.662
228 111 0 78 1 2 0 0 2 -1 2.081
229 109 1 100 3 3 2 1 1 2 3.052
230 111 0 79 1 1 0 1 0 3 4.419
231 109 1 101 0 0 3 1 1 3 1.038
232 109 1 102 2 2 0 1 1 0 0.551
233 111 1 80 1 0 2 0 1 2 0.923
234 109 1 103 2 0 2 0 0 0 0.865
235 111 1 81 0 0 2 1 1 2 0.592
236 109 1 104 2 2 1 1 1 1 0.74
237 111 1 82 2 1 1 0 1 1 0.77
238 109 1 105 0 0 2 1 1 2 0.679
239 111 1 83 3 2 2 0 1 2 1.596
240 109 1 106 0 0 1 1 1 1 0.685
241 111 1 84 1 1 2 1 1 2 0.729
242 109 1 107 2 2 2 1 1 2 0.819
243 111 1 85 2 2 0 1 1 0 0.71
244 109 1 108 2 0 2 0 1 2 0.916
245 111 1 86 2 2 1 1 1 1 0.603
246 109 1 109 2 3 2 0 1 2 0.716
247 111 1 87 0 1 2 0 1 2 0.651
248 109 1 110 0 0 2 1 1 2 1.009
249 111 1 88 0 0 3 1 1 3 0.506
250 109 1 111 2 0 2 0 1 2 0.907
251 111 1 89 1 0 1 0 1 1 0.63
252 109 1 112 1 1 2 1 1 2 0.616
253 111 1 90 2 2 1 1 1 1 0.574
254 109 1 113 2 3 2 0 1 2 0.129
255 111 1 91 0 1 2 0 1 2 0.704
256 109 1 114 1 2 2 0 0 0 0.619
257 111 1 92 3 3 1 1 1 1 0.709
258 109 1 115 0 0 3 1 1 3 0.678
259 111 1 93 1 1 0 1 1 0 0.655
260 109 1 116 3 1 0 0 0 2 0.749
261 111 1 94 1 1 2 1 1 2 0.854
262 109 1 117 0 2 2 0 1 2 0.836
263 111 1 95 0 1 0 0 1 0 0.67
264 109 1 118 0 0 2 1 1 2 0.58
265 109 1 119 0 0 3 1 0 0 1.054
266 111 1 96 2 3 0 0 0 1 1.684
267 109 1 120 1 1 2 1 1 2 0.586
268 111 1 97 1 1 3 1 1 3 0.513
269 109 1 121 2 2 0 1 1 0 0.563
270 111 1 98 2 2 3 1 1 3 0.637
271 109 1 122 0 0 1 1 1 1 0.59
272 111 1 99 2 2 3 1 1 3 0.413
273 109 1 123 0 0 0 1 1 0 0.471
274 111 1 100 0 1 0 0 0 2 2.157
275 109 1 124 3 2 2 0 1 2 0.868
276 111 1 101 0 0 3 1 1 3 0.577
277 109 1 125 0 1 1 0 0 2 0.531
278 111 1 102 3 3 1 1 1 1 0.611
279 109 1 126 0 2 0 0 0 2 0.626
280 111 1 103 0 0 3 1 1 3 0.564
281 109 1 127 2 2 0 1 1 0 0.43
282 111 1 104 1 2 1 0 0 3 1.198
283 109 1 128 0 1 3 0 0 2 0.781
284 111 1 105 2 2 3 1 1 3 0.517
285 109 1 129 3 3 3 1 0 1 1.059
286 111 1 106 0 0 0 1 1 0 0.541
287 109 1 130 2 2 0 1 1 0 0.495
288 111 1 107 0 0 3 1 0 1 1.504
289 109 1 131 0 0 3 1 1 3 1.132
290 111 1 108 1 2 2 0 1 2 0.644
291 109 1 132 0 0 0 1 1 0 0.882
292 111 1 109 3 3 2 1 1 2 1.235
293 109 1 133 2 2 2 1 0 1 1.777
294 111 1 110 2 2 0 1 1 0 0.645
295 109 1 134 3 1 2 0 0 0 1.699
296 109 1 135 1 1 2 1 1 2 0.76
297 111 1 111 1 2 1 0 1 1 5.661
298 109 1 136 0 0 1 1 1 1 0.604
299 111 1 112 0 0 0 1 1 0 0.521
300 109 1 137 3 1 2 0 1 2 0.836
301 111 1 113 1 1 3 1 1 3 0.86
302 109 1 138 0 2 2 0 1 2 0.644
303 111 1 114 1 1 3 1 1 3 0.795
304 109 1 139 1 1 2 1 1 2 0.764
305 111 1 115 0 0 1 1 1 1 0.477
306 109 1 140 1 0 1 0 0 2 0.766
307 111 1 116 0 0 2 1 1 2 0.563
308 109 1 141 2 2 2 1 1 2 0.965
309 109 1 142 0 0 2 1 1 2 0.304
310 111 1 117 1 0 3 0 0 1 1.677
311 109 1 143 1 1 0 1 1 0 0.772
312 111 1 118 3 2 3 0 1 3 0.547
313 109 1 144 0 0 3 1 1 3 0.742
314 111 1 119 1 1 0 1 1 0 1.278
315 109 1 145 1 0 0 0 0 2 0.762
316 111 1 120 3 3 3 1 1 3 0.671
317 109 1 146 2 2 3 1 1 3 0.817
318 111 1 121 0 0 0 1 1 0 0.781
319 109 1 147 2 1 3 0 0 2 0.706
320 111 1 122 3 2 0 0 1 0 0.943
321 109 1 148 1 1 3 1 1 3 0.506
322 111 1 123 0 0 0 1 1 0 0.596
323 109 1 149 2 2 2 1 1 2 0.422
324 111 1 124 0 0 3 1 1 3 0.597
325 109 1 150 1 1 0 1 1 0 0.758
326 111 1 125 1 0 3 0 1 3 1.014
327 109 1 151 2 2 1 1 0 3 1.529
328 111 1 126 0 0 2 1 1 2 0.529
329 109 1 152 3 3 2 1 1 2 0.692
330 111 1 127 0 0 1 1 1 1 0.46
331 109 1 153 3 3 3 1 1 3 0.937
332 111 1 128 1 1 1 1 1 1 0.898
333 111 1 129 2 2 0 1 1 0 0.416
334 109 1 154 0 0 2 1 1 2 1.35
335 111 1 130 0 0 2 1 1 2 0.528
336 109 1 155 2 1 1 0 0 2 1.348
337 111 1 131 3 2 0 0 1 0 0.539
338 111 1 132 0 0 1 1 1 1 0.526
339 109 1 156 2 1 3 0 0 2 2.757
340 111 1 133 3 3 0 1 1 0 0.554
341 109 1 157 1 1 0 1 1 0 1.125
342 111 1 134 2 3 1 0 0 3 1.324
343 109 1 158 0 0 3 1 1 3 1.05
344 109 1 159 2 2 1 1 1 1 1.202
345 111 1 135 2 2 1 1 1 1 2.399
346 111 1 136 1 1 3 1 1 3 0.535
347 109 2 160 1 1 0 1 1 0 0.795
348 111 1 137 1 2 1 0 1 1 1.242
349 109 2 161 1 2 3 0 0 1 0.925
350 109 2 162 3 3 0 1 1 0 0.734
351 111 1 138 3 3 3 1 1 3 2.595
352 109 2 163 3 3 0 1 1 0 0.433
353 111 1 139 2 3 1 0 1 1 1.58
354 109 2 164 2 2 3 1 1 3 0.689
355 111 1 140 3 3 0 1 1 0 0.754
356 109 2 165 2 2 0 1 1 0 0.598
357 111 1 141 2 1 0 0 1 0 0.845
358 109 2 166 3 3 2 1 1 2 0.687
359 111 1 142 3 1 0 0 1 0 1.045
360 109 2 167 3 3 2 1 1 2 0.645
361 111 1 143 2 2 0 1 1 0 0.574
362 109 2 168 3 3 2 1 1 2 0.684
363 111 1 144 2 0 1 0 1 1 0.512
364 109 2 169 3 3 2 1 1 2 0.562
365 111 1 145 0 0 0 1 1 0 0.612
366 109 2 170 2 1 3 0 0 2 1.02
367 111 1 146 1 2 1 0 1 1 0.453
368 109 2 171 0 0 3 1 1 3 0.666
369 111 1 147 1 1 0 1 1 0 0.555
370 109 2 172 2 2 1 1 1 1 1.265
371 111 1 148 0 0 0 1 1 0 0.613
372 109 2 173 3 3 1 1 1 1 0.849
373 111 1 149 0 0 3 1 1 3 0.638
374 109 2 174 0 0 1 1 1 1 0.85
375 111 1 150 2 2 0 1 1 0 0.525
376 111 1 151 0 0 1 1 1 1 0.513
377 109 2 175 3 3 3 1 0 2 1.393
378 111 1 152 1 1 0 1 1 0 0.573
379 109 2 176 0 0 2 1 1 2 0.706
380 111 1 153 3 0 2 0 1 2 0.526
381 109 2 177 1 1 3 1 1 3 0.598
382 111 1 154 0 0 0 1 1 0 0.618
383 109 2 178 0 0 2 1 1 2 0.847
384 111 1 155 2 2 0 1 1 0 0.482
385 109 2 179 3 1 0 0 0 2 1.008
386 111 1 156 1 1 3 1 1 3 0.519
387 109 2 180 1 0 0 0 0 1 0.733
388 111 1 157 3 0 2 0 1 2 0.715
389 109 2 181 3 3 0 1 1 0 0.485
390 111 1 158 1 1 3 1 1 3 0.568
391 109 2 182 1 1 1 1 1 1 0.786
392 111 1 159 3 1 3 0 0 1 2.114
393 109 2 183 3 3 2 1 1 2 0.98
394 109 2 184 1 1 1 1 1 1 0.736
395 109 2 185 3 0 1 0 1 1 1.796
396 111 2 160 0 0 1 1 1 1 0.562
397 109 2 186 0 0 0 1 1 0 0.866
398 111 2 161 1 1 1 1 1 1 0.765
399 109 2 187 1 1 0 1 0 3 1.457
400 111 2 162 2 2 0 1 1 0 0.679
401 109 2 188 0 0 0 1 1 0 0.703
402 111 2 163 0 1 0 0 1 0 1.077
403 111 2 164 0 0 2 1 1 2 0.701
404 109 2 189 0 0 1 1 0 0 1.332
405 109 2 190 1 1 0 1 1 0 0.358
406 111 2 165 0 0 0 1 1 0 0.634
407 111 2 166 2 2 3 1 1 3 0.505
408 109 2 191 2 2 3 1 1 3 0.903
409 111 2 167 1 2 1 0 1 1 0.757
410 109 2 192 1 2 2 0 0 1 1.413
411 111 2 168 1 0 3 0 1 3 0.593
412 109 2 193 2 1 0 0 0 2 0.98
413 111 2 169 0 0 0 1 1 0 0.506
414 109 2 194 0 1 2 0 1 2 0.515
415 111 2 170 0 0 3 1 1 3 0.654
416 109 2 195 3 3 3 1 1 3 0.656
417 111 2 171 3 2 2 0 1 2 0.453
418 109 2 196 1 1 1 1 1 1 0.454
419 111 2 172 2 2 1 1 1 1 0.459
420 109 2 197 2 2 2 1 1 2 0.564
421 111 2 173 3 2 1 0 1 1 0.569
422 109 2 198 0 0 3 1 1 3 0.591
423 111 2 174 1 2 1 0 1 1 0.474
424 109 2 199 3 3 3 1 0 1 1.24
425 111 2 175 2 2 2 1 1 2 0.48
426 109 2 200 1 1 1 1 1 1 0.51
427 111 2 176 1 1 1 1 1 1 0.493
428 109 2 201 1 1 0 1 0 2 1.066
429 111 2 177 3 1 3 0 1 3 0.769
430 109 2 202 3 3 1 1 1 1 0.293
431 111 2 178 3 3 1 1 1 1 0.627
432 109 2 203 3 1 2 0 0 0 0.697
433 111 2 179 3 1 2 0 0 3 0.563
434 109 2 204 2 2 0 1 1 0 0.21
435 111 2 180 1 1 0 1 0 2 1.673
436 109 2 205 3 3 0 1 1 0 0.393
437 109 2 206 0 1 3 0 0 0 0.425
438 111 2 181 3 3 0 1 1 0 0.791
439 109 2 207 3 3 1 1 1 1 0.332
440 111 2 182 0 1 1 0 1 1 0.913
441 109 2 208 1 1 3 1 1 3 0.735
442 111 2 183 3 3 2 1 1 2 0.559
443 109 2 209 1 1 2 1 1 2 0.867
444 111 2 184 1 1 3 1 1 3 0.506
445 109 2 210 3 2 0 0 0 2 0.354
446 111 2 185 1 2 3 0 1 3 0.39
447 109 2 211 2 1 2 0 1 2 0.231
448 111 2 186 1 1 1 1 1 1 0.662
449 109 2 212 2 2 0 1 1 0 0.605
450 111 2 187 2 0 0 0 1 0 0.749
451 109 2 213 3 0 0 0 0 2 0.742
452 111 2 188 3 0 3 0 1 3 0.569
453 109 2 214 1 0 0 0 0 2 0.797
454 111 2 189 0 2 3 0 1 3 0.467
455 109 2 215 1 2 0 0 0 3 0.499
456 111 2 190 0 1 2 0 1 2 0.665
457 109 2 216 3 3 2 1 1 2 0.403
458 111 2 191 3 3 2 1 1 2 1.015
459 109 2 217 0 1 0 0 0 3 0.771
460 111 2 192 0 0 1 1 1 1 0.449
461 109 2 218 1 0 0 0 0 1 0.697
462 111 2 193 1 2 3 0 1 3 0.607
463 109 2 219 2 3 2 0 0 1 0.466
464 111 2 194 3 0 3 0 1 3 0.52
465 109 2 220 3 3 1 1 1 1 0.387
466 111 2 195 0 1 1 0 1 1 0.635
467 109 2 221 3 3 0 1 1 0 0.259
468 109 2 222 3 2 1 0 0 0 0.648
469 111 2 196 1 0 0 0 0 2 1.595
470 109 2 223 3 2 0 0 1 0 0.419
471 111 2 197 2 2 1 1 1 1 0.508
472 109 2 224 3 2 2 0 0 0 0.291
473 111 2 198 3 3 0 1 1 0 0.744
474 109 2 225 3 3 1 1 1 1 0.457
475 111 2 199 1 2 2 0 1 2 0.436
476 109 2 226 3 3 2 1 0 1 1.735
477 111 2 200 1 1 0 1 1 0 0.746
478 109 2 227 2 2 0 1 1 0 0.475
479 111 2 201 2 2 1 1 1 1 0.646
480 111 2 202 1 1 0 1 1 0 0.646
481 109 2 228 3 0 3 0 0 1 1.16
482 109 2 229 3 1 0 0 1 0 0.721
483 111 2 203 2 0 2 0 0 1 1.541
484 109 2 230 1 1 2 1 1 2 1.189
485 111 2 204 0 0 1 1 1 1 0.704
486 109 2 231 0 2 2 0 0 1 0.585
487 111 2 205 3 1 0 0 0 2 1.317
488 109 2 232 3 2 0 0 0 1 1.207
489 111 2 206 1 1 0 1 1 0 0.719
490 109 2 233 0 0 2 1 0 1 0.813
491 111 2 207 2 2 3 1 1 3 0.66
492 109 2 234 0 1 1 0 0 2 0.578
493 111 2 208 0 0 2 1 1 2 0.379
494 109 2 235 3 3 1 1 1 1 0.479
495 111 2 209 0 0 0 1 1 0 0.619
496 109 2 236 0 0 0 1 1 0 0.3
497 111 2 210 0 0 3 1 0 2 1.043
498 109 2 237 0 0 2 1 1 2 0.544
499 111 2 211 3 0 3 0 1 3 0.783
500 109 2 238 0 0 1 1 1 1 0.299
501 111 2 212 1 1 2 1 1 2 0.713
502 109 2 239 3 0 3 0 0 2 0.638
503 111 2 213 2 2 2 1 1 2 0.486
504 109 3 240 3 3 0 1 1 0 0.281
505 111 2 214 0 0 0 1 1 0 0.787
506 109 3 241 0 0 1 1 1 1 0.493
507 111 2 215 3 3 0 1 1 0 0.493
508 109 3 242 3 3 0 1 1 0 0.826
509 111 2 216 3 1 2 0 1 2 1.074
510 109 3 243 1 1 2 1 0 1 0.283
511 111 2 217 1 1 2 1 1 2 0.754
512 109 3 244 3 3 0 1 1 0 0.355
513 111 2 218 2 2 0 1 1 0 0.533
514 109 3 245 2 2 0 1 1 0 0.277
515 111 2 219 0 0 2 1 1 2 0.68
516 109 3 246 3 2 0 0 0 1 1.145
517 111 2 220 1 2 2 0 1 2 0.542
518 109 3 247 1 1 0 1 1 0 0.29
519 111 2 221 1 1 0 1 1 0 0.577
520 109 3 248 3 1 0 0 0 1 1.67
521 111 2 222 2 2 1 1 1 1 0.482
522 109 3 249 0 0 0 1 1 0 0.268
523 111 2 223 2 0 1 0 1 1 0.823
524 109 3 250 2 0 3 0 0 0 0.606
525 111 2 224 1 1 2 1 1 2 0.6
526 109 3 251 0 0 2 1 1 2 0.73
527 111 2 225 2 2 0 1 1 0 0.521
528 109 3 252 1 0 0 0 0 1 1.534
529 111 2 226 3 1 0 0 1 0 0.788
530 109 3 253 1 1 1 1 1 1 0.345
531 111 2 227 3 1 3 0 1 3 0.686
532 109 3 254 2 2 1 1 1 1 0.299
533 111 2 228 1 1 2 1 1 2 0.788
534 109 3 255 2 0 3 0 0 1 0.719
535 111 2 229 2 2 1 1 1 1 0.374
536 109 3 256 3 3 2 1 1 2 0.983
537 111 2 230 2 2 1 1 1 1 0.407
538 111 2 231 3 3 2 1 1 2 0.854
539 109 3 257 3 3 3 1 1 3 1.746
540 109 3 258 0 0 2 1 1 2 0.882
541 111 2 232 0 0 1 1 1 1 1.086
542 109 3 259 1 1 1 1 1 1 0.368
543 111 2 233 2 2 3 1 1 3 0.534
544 111 2 234 0 0 3 1 1 3 0.592
545 109 3 260 0 0 1 1 1 1 1.617
546 111 2 235 2 2 1 1 1 1 0.53
547 109 3 261 3 2 3 0 0 1 0.965
548 111 2 236 1 1 2 1 1 2 0.685
549 109 3 262 0 0 2 1 1 2 0.66
550 111 2 237 3 1 0 0 1 0 0.602
551 109 3 263 0 0 0 1 1 0 0.459
552 111 2 238 2 2 0 1 1 0 0.451
553 109 3 264 3 3 1 1 1 1 0.281
554 111 2 239 3 3 1 1 1 1 0.601
555 109 3 265 2 2 2 1 1 2 0.557
556 109 3 266 1 2 1 0 0 2 1.655
557 109 3 267 0 0 0 1 1 0 0.43
558 111 3 240 2 2 1 1 1 1 0.732
559 109 3 268 3 2 0 0 1 0 0.541
560 111 3 241 0 0 0 1 1 0 0.565
561 109 3 269 0 0 0 1 1 0 0.328
562 111 3 242 0 0 2 1 1 2 0.512
563 109 3 270 2 2 2 1 1 2 1.179
564 111 3 243 1 2 3 0 1 3 0.564
565 109 3 271 2 2 1 1 1 1 0.319
566 111 3 244 2 2 3 1 1 3 0.51
567 109 3 272 0 0 2 1 1 2 0.498
568 111 3 245 2 2 1 1 1 1 0.498
569 109 3 273 1 1 0 1 1 0 0.431
570 111 3 246 3 3 2 1 0 3 2.319
571 109 3 274 1 1 0 1 1 0 0.27
572 111 3 247 1 1 2 1 1 2 0.534
573 109 3 275 3 3 3 1 1 3 0.77
574 111 3 248 1 1 1 1 1 1 0.601
575 109 3 276 3 3 2 1 0 1 1.429
576 111 3 249 0 0 3 1 1 3 0.634
577 109 3 277 1 2 0 0 0 1 0.34
578 111 3 250 2 2 0 1 1 0 0.529
579 109 3 278 0 0 2 1 1 2 0.81
580 111 3 251 3 3 2 1 1 2 1.293
581 109 3 279 3 3 0 1 1 0 0.267
582 111 3 252 3 3 1 1 1 1 0.645
583 109 3 280 0 0 3 1 1 3 0.608
584 109 3 281 0 0 0 1 1 0 0.296
585 111 3 253 0 0 2 1 1 2 0.604
586 111 3 254 3 3 2 1 1 2 0.549
587 109 3 282 1 1 2 1 0 3 1.388
588 111 3 255 1 1 1 1 1 1 0.687
589 109 3 283 2 2 2 1 1 2 0.605
590 111 3 256 2 0 1 0 1 1 0.573
591 109 3 284 1 0 0 0 0 1 2.181
592 111 3 257 3 3 1 1 1 1 0.535
593 111 3 258 3 3 3 1 1 3 0.522
594 109 3 285 0 0 1 1 0 0 2.889
595 111 3 259 2 2 0 1 0 2 1.365
596 109 3 286 3 3 1 1 1 1 2.452
597 111 3 260 2 2 2 1 1 2 0.406
598 111 3 261 3 3 2 1 1 2 0.486
599 109 3 287 0 0 3 1 1 3 0.954
600 109 3 288 0 2 3 0 0 1 2.15
601 111 3 262 2 2 3 1 1 3 3.347
602 111 3 263 2 2 0 1 1 0 0.601
603 109 3 289 1 2 1 0 0 2 1.803
604 111 3 264 1 0 1 0 1 1 0.53
605 109 3 290 1 1 2 1 1 2 1.389
606 111 3 265 1 2 2 0 1 2 0.413
607 109 3 291 1 2 2 0 0 1 1.401
608 111 3 266 3 3 2 1 1 2 0.549
609 109 3 292 3 3 0 1 1 0 0.889
610 111 3 267 3 3 0 1 1 0 0.535
611 109 3 293 0 0 1 1 1 1 0.663
612 111 3 268 2 2 1 1 1 1 0.466
613 109 3 294 2 2 0 1 1 0 0.478
614 111 3 269 1 1 2 1 1 2 0.528
615 109 3 295 3 3 2 1 1 2 1.275
616 111 3 270 0 0 0 1 1 0 0.867
617 111 3 271 1 1 0 1 1 0 0.498
618 109 3 296 3 3 2 1 0 1 0.844
619 111 3 272 3 3 1 1 0 2 1.535
620 109 3 297 1 1 3 1 0 2 1.44
621 111 3 273 1 1 3 1 1 3 0.538
622 109 3 298 1 1 1 1 0 2 1.119
623 111 3 274 3 3 0 1 1 0 0.525
624 109 3 299 2 2 2 1 1 2 0.84
625 111 3 275 2 2 0 1 1 0 0.424
626 109 3 300 2 2 0 1 1 0 0.361
627 111 3 276 2 2 1 1 0 2 0.88
628 109 3 301 0 1 1 0 0 0 1.082
629 109 3 302 1 1 0 1 1 0 0.389
630 111 3 277 2 3 2 0 1 2 1.634
631 111 3 278 0 0 1 1 1 1 0.526
632 109 3 303 0 0 2 1 1 2 1.029
633 111 3 279 1 1 0 1 1 0 0.706
634 109 3 304 3 1 2 0 1 2 1.357
635 111 3 280 3 3 3 1 1 3 0.599
636 109 3 305 1 1 1 1 1 1 0.523
637 111 3 281 2 2 3 1 1 3 0.768
638 109 3 306 0 0 2 1 1 2 0.615
639 111 3 282 0 2 2 0 1 2 0.642
640 109 3 307 3 3 2 1 1 2 0.815
641 111 3 283 1 2 0 0 1 0 0.466
642 109 3 308 2 2 2 1 1 2 0.752
643 111 3 284 3 2 2 0 1 2 0.615
644 109 3 309 0 0 0 1 1 0 0.355
645 111 3 285 0 0 2 1 1 2 0.696
646 109 3 310 0 2 2 0 0 1 1.429
647 111 3 286 3 0 1 0 1 1 0.413
648 109 3 311 1 1 0 1 1 0 0.454
649 111 3 287 1 1 0 1 1 0 0.509
650 109 3 312 1 1 0 1 1 0 0.996
651 111 3 288 0 0 3 1 1 3 0.441
652 109 3 313 2 2 3 1 1 3 0.687
653 111 3 289 0 2 3 0 1 3 0.496
654 109 3 314 3 3 0 1 1 0 0.405
655 111 3 290 3 3 2 1 1 2 0.517
656 111 3 291 3 0 3 0 1 3 0.424
657 109 3 315 1 1 3 1 1 3 0.916
658 109 3 316 1 1 1 1 1 1 0.386
659 111 3 292 3 0 1 0 0 2 1.519
660 109 3 317 0 0 2 1 1 2 0.85
661 111 3 293 1 1 0 1 1 0 0.867
662 109 3 318 2 1 0 0 0 1 0.994
663 111 3 294 0 1 1 0 1 1 1.13
664 109 3 319 0 0 2 1 0 3 1.184
665 111 3 295 3 2 1 0 1 1 0.392
666 111 3 296 1 1 0 1 1 0 0.512
667 111 3 297 3 3 1 1 1 1 0.548
668 111 3 298 0 0 3 1 1 3 0.487
669 111 3 299 3 3 3 1 1 3 0.516
670 111 3 300 2 2 1 1 1 1 0.616
671 111 3 301 3 3 0 1 1 0 0.504
672 111 3 302 3 3 1 1 1 1 0.628
673 111 3 303 0 0 3 1 1 3 0.788
674 111 3 304 3 3 1 1 1 1 1.43
675 111 3 305 2 2 0 1 1 0 0.481
676 111 3 306 2 2 3 1 1 3 0.638
677 111 3 307 0 0 0 1 1 0 0.622
678 111 3 308 3 3 1 1 1 1 0.998
679 111 3 309 0 0 0 1 1 0 0.537
680 111 3 310 1 2 2 0 1 2 2.012
681 111 3 311 0 0 3 1 1 3 0.754
682 111 3 312 3 1 1 0 1 1 0.565
683 111 3 313 2 2 2 1 1 2 0.671
684 111 3 314 2 2 3 1 1 3 0.437
685 111 3 315 1 1 1 1 1 1 0.548
686 111 3 316 3 3 0 1 1 0 0.439
687 111 3 317 2 2 0 1 1 0 0.381
688 111 3 318 0 1 3 0 1 3 0.558
689 111 3 319 2 2 3 1 1 3 0.505
690 123 0 0 1 1 0 1 1 0 0.723
691 123 0 1 0 0 3 1 1 3 0.645
692 123 0 2 3 3 2 1 1 2 1.196
693 123 0 3 2 2 2 1 1 2 0.446
694 123 0 4 3 1 2 0 1 2 0.283
695 123 0 5 3 3 3 1 1 3 0.622
696 123 0 6 2 2 3 1 1 3 0.485
697 123 0 7 3 2 2 0 1 2 0.497
698 123 0 8 3 3 0 1 1 0 0.316
699 123 0 9 1 1 2 1 1 2 0.094
700 123 0 10 2 2 2 1 1 2 0.232
701 123 0 11 1 2 1 0 1 1 0.205
702 123 0 12 1 0 0 0 1 0 0.307
703 123 0 13 2 1 3 0 0 2 0.517
704 123 0 14 1 1 2 1 1 2 0.083
705 123 0 15 0 0 0 1 1 0 0.061
706 123 0 16 1 1 3 1 1 3 0.28
707 123 0 17 2 2 2 1 1 2 0.251
708 123 0 18 2 1 2 0 1 2 0.319
709 123 0 19 0 0 0 1 1 0 0.094
710 123 0 20 0 0 0 1 1 0 0.024
711 123 0 21 2 2 0 1 1 0 0.18
712 123 0 22 0 0 0 1 1 0 0.059
713 123 0 23 3 2 2 0 1 2 0.134
714 123 0 24 3 3 0 1 1 0 0.126
715 123 0 25 3 3 2 1 1 2 0.487
716 123 0 26 3 3 0 1 1 0 0.114
717 123 0 27 3 3 3 1 0 2 0.315
718 123 0 28 2 2 2 1 1 2 0.305
719 123 0 29 1 1 1 1 1 1 0.163
720 123 0 30 2 2 2 1 1 2 0.121
721 123 0 31 1 1 3 1 1 3 0.241
722 123 0 32 3 0 1 0 0 0 0.166
723 123 0 33 1 1 1 1 1 1 0.129
724 123 0 34 0 0 0 1 1 0 0.042
725 123 0 35 1 0 0 0 1 0 0.085
726 123 0 36 0 0 2 1 1 2 0.224
727 123 0 37 1 1 3 1 1 3 0.437
728 123 0 38 3 1 3 0 1 3 0.706
729 123 0 39 0 0 1 1 1 1 0.182
730 123 0 40 0 0 3 1 1 3 0.221
731 123 0 41 0 0 0 1 1 0 0.21
732 123 0 42 3 2 1 0 1 1 0.168
733 123 0 43 3 3 0 1 1 0 0.222
734 123 0 44 2 3 0 0 0 3 0.627
735 123 0 45 3 0 3 0 0 2 0.446
736 123 0 46 0 0 3 1 1 3 0.191
737 123 0 47 3 3 2 1 1 2 0.181
738 123 0 48 3 3 1 1 1 1 0.284
739 123 0 49 1 2 3 0 1 3 0.415
740 123 0 50 1 2 2 0 1 2 0.222
741 123 0 51 3 3 3 1 1 3 0.099
742 123 0 52 3 0 2 0 1 2 0.109
743 123 0 53 3 3 3 1 1 3 0.102
744 123 0 54 0 0 0 1 1 0 0.079
745 123 0 55 2 2 1 1 1 1 0.17
746 123 0 56 1 1 1 1 1 1 0.16
747 123 0 57 1 2 3 0 1 3 0.136
748 123 0 58 2 2 2 1 0 1 0.208
749 123 0 59 0 1 0 0 1 0 0.169
750 123 0 60 0 0 0 1 1 0 0.176
751 123 0 61 1 1 2 1 1 2 0.295
752 123 0 62 3 3 0 1 1 0 0.154
753 123 0 63 3 3 2 1 1 2 0.273
754 123 0 64 3 3 3 1 1 3 0.197
755 123 0 65 2 2 0 1 1 0 0.091
756 123 0 66 1 0 0 0 1 0 0.085
757 123 0 67 1 2 1 0 1 1 0.223
758 123 0 68 1 2 3 0 1 3 0.436
759 123 0 69 0 0 2 1 1 2 0.289
760 123 0 70 3 3 2 1 1 2 0.228
761 123 0 71 3 3 2 1 1 2 0.121
762 123 0 72 1 1 1 1 1 1 0.13
763 123 0 73 1 1 0 1 1 0 0.218
764 123 0 74 2 3 0 0 0 3 0.463
765 123 0 75 2 1 2 0 1 2 0.416
766 123 0 76 1 1 0 1 1 0 0.302
767 123 0 77 1 1 2 1 1 2 0.256
768 123 0 78 1 1 0 1 1 0 0.196
769 123 0 79 0 0 2 1 1 2 0.138
770 123 1 80 3 3 0 1 1 0 0.144
771 123 1 81 1 1 0 1 1 0 0.136
772 123 1 82 3 3 3 1 1 3 0.256
773 123 1 83 3 3 3 1 1 3 0.148
774 123 1 84 1 1 1 1 1 1 0.188
775 123 1 85 2 2 2 1 1 2 0.178
776 123 1 86 3 0 2 0 0 3 0.217
777 123 1 87 0 0 1 1 1 1 0.13
778 123 1 88 1 0 0 0 0 3 0.443
779 123 1 89 2 1 1 0 0 3 0.46
780 123 1 90 0 0 3 1 1 3 0.316
781 123 1 91 2 2 1 1 1 1 0.158
782 123 1 92 2 0 3 0 1 3 0.197
783 123 1 93 3 3 0 1 1 0 0.219
784 123 1 94 2 0 2 0 1 2 0.304
785 123 1 95 1 1 1 1 1 1 0.227
786 123 1 96 0 0 3 1 1 3 0.12
787 123 1 97 2 3 1 0 0 3 0.337
788 123 1 98 3 3 1 1 1 1 0.197
789 123 1 99 0 2 1 0 0 3 0.364
790 123 1 100 0 0 1 1 1 1 0.143
791 123 1 101 3 3 3 1 1 3 0.183
792 123 1 102 1 1 0 1 1 0 0.429
793 123 1 103 3 3 1 1 1 1 0.139
794 123 1 104 0 0 1 1 1 1 0.131
795 123 1 105 2 2 0 1 1 0 0.236
796 123 1 106 1 2 1 0 1 1 0.176
797 123 1 107 1 1 3 1 1 3 0.231
798 123 1 108 2 2 3 1 1 3 0.22
799 123 1 109 0 0 1 1 1 1 0.177
800 123 1 110 3 3 3 1 1 3 0.104
801 123 1 111 2 2 3 1 1 3 0.161
802 123 1 112 3 3 0 1 1 0 0.152
803 123 1 113 2 2 2 1 1 2 0.224
804 123 1 114 3 3 0 1 1 0 0.261
805 123 1 115 0 0 3 1 1 3 0.121
806 123 1 116 1 2 1 0 1 1 0.161
807 123 1 117 2 3 3 0 1 3 0.105
808 123 1 118 3 3 0 1 1 0 0.146
809 123 1 119 0 2 1 0 1 1 0.138
810 123 1 120 0 1 3 0 1 3 0.114
811 123 1 121 2 2 1 1 1 1 0.107
812 123 1 122 1 1 2 1 1 2 0.116
813 123 1 123 0 0 0 1 1 0 0.093
814 123 1 124 2 2 2 1 1 2 0.183
815 123 1 125 2 2 3 1 1 3 0.19
816 123 1 126 0 2 2 0 1 2 0.164
817 123 1 127 3 3 2 1 1 2 0.284
818 123 1 128 2 2 1 1 1 1 0.207
819 123 1 129 2 2 3 1 1 3 0.261
820 123 1 130 2 2 1 1 1 1 0.168
821 123 1 131 0 1 1 0 1 1 0.127
822 123 1 132 3 3 3 1 1 3 0.12
823 123 1 133 1 1 2 1 1 2 0.225
824 123 1 134 1 0 3 0 1 3 0.502
825 123 1 135 1 1 2 1 1 2 0.145
826 123 1 136 1 1 3 1 1 3 0.185
827 123 1 137 1 1 2 1 1 2 0.143
828 123 1 138 3 3 0 1 1 0 0.167
829 123 1 139 2 1 1 0 1 1 0.221
830 123 1 140 3 1 0 0 1 0 0.13
831 123 1 141 2 0 2 0 1 2 0.106
832 123 1 142 3 0 3 0 1 3 0.132
833 123 1 143 0 1 3 0 0 2 0.508
834 123 1 144 2 2 0 1 1 0 0.155
835 123 1 145 0 1 3 0 0 2 0.21
836 123 1 146 1 1 0 1 1 0 0.187
837 123 1 147 2 1 2 0 1 2 0.129
838 123 1 148 3 1 1 0 0 3 0.41
839 123 1 149 0 2 1 0 1 1 0.174
840 123 1 150 1 1 3 1 1 3 0.165
841 123 1 151 3 3 1 1 0 2 0.156
842 123 1 152 2 2 1 1 0 3 0.455
843 123 1 153 2 2 3 1 1 3 0.279
844 123 1 154 2 2 3 1 1 3 0.075
845 123 1 155 1 1 1 1 1 1 0.149
846 123 1 156 2 2 1 1 1 1 0.221
847 123 1 157 2 2 1 1 1 1 0.13
848 123 1 158 1 1 2 1 1 2 0.187
849 123 1 159 2 1 1 0 1 1 0.145
850 123 2 160 1 1 0 1 1 0 0.159
851 123 2 161 2 2 0 1 1 0 0.086
852 123 2 162 3 3 3 1 0 2 0.4
853 123 2 163 1 1 0 1 1 0 0.115
854 123 2 164 2 2 2 1 1 2 0.363
855 123 2 165 0 2 3 0 1 3 0.204
856 123 2 166 1 0 1 0 1 1 0.161
857 123 2 167 0 0 1 1 1 1 0.105
858 123 2 168 3 3 1 1 1 1 0.194
859 123 2 169 1 1 1 1 1 1 0.168
860 123 2 170 3 3 1 1 1 1 0.126
861 123 2 171 2 2 3 1 1 3 0.183
862 123 2 172 1 1 1 1 1 1 0.174
863 123 2 173 1 1 3 1 0 2 0.34
864 123 2 174 2 2 0 1 1 0 0.153
865 123 2 175 2 2 2 1 1 2 0.241
866 123 2 176 0 0 2 1 1 2 0.261
867 123 2 177 3 3 1 1 1 1 0.169
868 123 2 178 0 0 2 1 1 2 0.24
869 123 2 179 2 2 0 1 1 0 0.212
870 123 2 180 2 2 3 1 1 3 0.282
871 123 2 181 3 3 0 1 1 0 0.253
872 123 2 182 1 1 0 1 1 0 0.225
873 123 2 183 1 1 3 1 1 3 0.39
874 123 2 184 3 2 2 0 1 2 0.325
875 123 2 185 0 0 2 1 1 2 0.279
876 123 2 186 0 1 3 0 1 3 0.202
877 123 2 187 1 1 2 1 1 2 0.256
878 123 2 188 0 0 3 1 1 3 0.307
879 123 2 189 1 2 3 0 1 3 0.197
880 123 2 190 2 3 0 0 1 0 0.203
881 123 2 191 0 0 1 1 1 1 0.289
882 123 2 192 2 2 3 1 1 3 0.116
883 123 2 193 1 0 3 0 1 3 0.125
884 123 2 194 1 1 0 1 1 0 0.181
885 123 2 195 3 3 3 1 1 3 0.22
886 123 2 196 1 1 1 1 1 1 0.337
887 123 2 197 0 0 3 1 1 3 0.21
888 123 2 198 1 1 0 1 1 0 0.2
889 123 2 199 1 1 3 1 1 3 0.19
890 123 2 200 2 2 2 1 0 3 0.549
891 123 2 201 3 3 1 1 1 1 0.402
892 123 2 202 0 0 1 1 1 1 0.224
893 123 2 203 0 1 3 0 1 3 0.149
894 123 2 204 2 2 0 1 1 0 0.125
895 123 2 205 3 3 2 1 1 2 0.358
896 123 2 206 2 2 1 1 1 1 0.422
897 123 2 207 2 0 0 0 1 0 0.212
898 123 2 208 3 3 1 1 1 1 0.345
899 123 2 209 1 1 3 1 1 3 0.266
900 123 2 210 1 1 2 1 0 3 0.574
901 123 2 211 2 2 1 1 0 3 0.346
902 123 2 212 1 1 1 1 1 1 0.398
903 123 2 213 0 0 1 1 1 1 0.157
904 123 2 214 3 0 1 0 1 1 0.149
905 123 2 215 2 2 1 1 1 1 0.157
906 123 2 216 0 0 0 1 1 0 0.18
907 123 2 217 2 0 0 0 1 0 0.075
908 123 2 218 3 0 1 0 0 0 0.07
909 123 2 219 0 0 3 1 1 3 0.26
910 123 2 220 0 1 0 0 1 0 0.2
911 123 2 221 1 1 2 1 1 2 0.334
912 123 2 222 0 1 1 0 1 1 0.351
913 123 2 223 3 3 3 1 1 3 0.367
914 123 2 224 2 2 3 1 1 3 0.175
915 123 2 225 3 1 3 0 1 3 0.214
916 123 2 226 1 2 1 0 1 1 0.219
917 123 2 227 3 3 1 1 1 1 0.208
918 123 2 228 1 2 0 0 1 0 0.213
919 123 2 229 0 0 0 1 1 0 0.155
920 123 2 230 2 2 1 1 1 1 0.131
921 123 2 231 3 0 1 0 1 1 0.155
922 123 2 232 2 2 1 1 1 1 0.227
923 123 2 233 0 0 1 1 1 1 0.104
924 123 2 234 1 2 1 0 0 3 0.401
925 123 2 235 2 3 0 0 1 0 0.211
926 123 2 236 2 3 0 0 1 0 0.089
927 123 2 237 2 3 1 0 1 1 0.147
928 123 2 238 1 1 0 1 1 0 0.219
929 123 2 239 1 1 3 1 1 3 0.384
930 123 3 240 1 1 2 1 1 2 0.935
931 123 3 241 1 1 3 1 1 3 0.498
932 123 3 242 3 3 1 1 1 1 0.11
933 123 3 243 3 3 0 1 1 0 0.199
934 123 3 244 1 1 1 1 1 1 0.141
935 123 3 245 1 1 2 1 1 2 0.165
936 123 3 246 0 0 1 1 1 1 0.396
937 123 3 247 0 0 1 1 1 1 0.172
938 123 3 248 2 2 1 1 1 1 0.226
939 123 3 249 3 3 1 1 1 1 0.167
940 123 3 250 2 0 2 0 1 2 0.559
941 123 3 251 3 1 3 0 0 2 0.216
942 123 3 252 1 0 3 0 1 3 0.497
943 123 3 253 3 3 0 1 1 0 0.141
944 123 3 254 2 1 0 0 1 0 0.181
945 123 3 255 0 0 0 1 1 0 0.188
946 123 3 256 3 2 2 0 0 3 0.13
947 123 3 257 2 2 1 1 0 2 0.526
948 123 3 258 0 0 3 1 1 3 0.236
949 123 3 259 1 2 3 0 1 3 0.145
950 123 3 260 1 2 0 0 1 0 0.281
951 123 3 261 2 0 2 0 1 2 0.284
952 123 3 262 0 0 3 1 1 3 0.191
953 123 3 263 1 1 0 1 1 0 0.166
954 123 3 264 0 0 0 1 1 0 0.141
955 123 3 265 1 1 2 1 1 2 0.149
956 123 3 266 0 0 2 1 1 2 0.189
957 123 3 267 1 1 2 1 1 2 0.259
958 123 3 268 2 2 1 1 0 3 0.375
959 123 3 269 3 0 0 0 1 0 0.123
960 123 3 270 1 1 2 1 1 2 0.067
961 123 3 271 0 0 0 1 1 0 0.078
962 123 3 272 0 0 0 1 1 0 0.121
963 123 3 273 2 1 3 0 1 3 0.737
964 123 3 274 3 3 2 1 1 2 0.18
965 123 3 275 3 0 3 0 1 3 0.251
966 123 3 276 3 1 3 0 1 3 0.383
967 123 3 277 2 3 0 0 1 0 0.174
968 123 3 278 1 1 2 1 1 2 0.325
969 123 3 279 1 0 2 0 1 2 0.119
970 123 3 280 3 2 3 0 1 3 0.399
971 123 3 281 3 3 0 1 1 0 0.19
972 123 3 282 2 1 1 0 1 1 0.229
973 123 3 283 1 2 0 0 1 0 0.138
974 123 3 284 0 1 0 0 0 1 0.546
975 123 3 285 3 3 3 1 1 3 0.319
976 123 3 286 3 3 2 1 1 2 0.209
977 123 3 287 2 2 1 1 1 1 0.278
978 123 3 288 2 2 1 1 1 1 0.121
979 123 3 289 3 2 1 0 1 1 0.034
980 123 3 290 0 1 3 0 1 3 0.11
981 123 3 291 2 2 1 1 1 1 0.199
982 123 3 292 0 0 3 1 1 3 0.205
983 123 3 293 2 1 1 0 1 1 0.163
984 123 3 294 3 3 3 1 1 3 0.075
985 123 3 295 1 1 0 1 0 2 0.469
986 123 3 296 0 1 2 0 0 3 0.117
987 123 3 297 1 1 1 1 1 1 0.274
988 123 3 298 2 0 1 0 1 1 0.261
989 123 3 299 3 3 0 1 1 0 0.249
990 123 3 300 0 1 3 0 1 3 0.335
991 123 3 301 3 3 3 1 1 3 0.224
992 123 3 302 0 1 0 0 1 0 0.245
993 123 3 303 0 0 2 1 1 2 0.857
994 123 3 304 3 3 2 1 1 2 0.215
995 123 3 305 0 0 0 1 1 0 0.125
996 123 3 306 1 1 2 1 1 2 0.102
997 123 3 307 2 2 0 1 1 0 0.127
998 123 3 308 1 1 2 1 1 2 0.151
999 123 3 309 1 1 3 1 1 3 0.224
1000 123 3 310 0 0 1 1 1 1 0.277
1001 123 3 311 2 3 2 0 1 2 0.2
1002 123 3 312 3 3 1 1 1 1 0.206
1003 123 3 313 0 0 0 1 1 0 0.148
1004 123 3 314 1 1 3 1 1 3 0.236
1005 123 3 315 1 1 2 1 1 2 0.208
1006 123 3 316 3 3 1 1 1 1 0.214
1007 123 3 317 0 0 0 1 1 0 0.108
1008 123 3 318 0 0 3 1 1 3 0.34
1009 123 3 319 3 3 3 1 1 3 0.357
1010 126 0 0 2 2 3 1 0 2 1.946
1011 126 0 1 2 3 0 0 0 1 5.078
1012 126 0 2 2 3 0 0 0 1 4.05
1013 126 0 3 1 1 3 1 1 3 0.835
1014 126 0 4 1 1 3 1 1 3 2.77
1015 126 0 5 1 1 1 1 1 1 0.861
1016 126 0 6 3 3 2 1 0 0 3.178
1017 126 0 7 1 2 2 0 0 0 3.626
1018 126 0 8 2 1 3 0 0 1 5.114
1019 126 0 9 0 1 0 0 1 0 3.909
1020 126 0 10 1 1 3 1 1 3 2.438
1021 126 0 11 0 1 1 0 0 0 1.021
1022 126 0 12 1 0 2 0 1 2 2.299
1023 126 0 13 2 2 2 1 1 2 0.583
1024 126 0 14 1 1 1 1 1 1 3.008
1025 126 0 15 0 1 2 0 0 0 0.819
1026 126 0 16 0 1 3 0 0 2 3.959
1027 126 0 17 2 2 2 1 1 2 0.299
1028 126 0 18 1 1 0 1 1 0 0.287
1029 126 0 19 0 2 1 0 1 1 0.243
1030 126 0 20 0 0 3 1 1 3 0.425
1031 126 0 21 3 2 2 0 1 2 0.696
1032 126 0 22 3 3 2 1 1 2 0.302
1033 126 0 23 3 3 1 1 1 1 1.712
1034 126 0 24 1 1 1 1 1 1 0.273
1035 126 0 25 0 0 0 1 1 0 0.566
1036 126 0 26 3 3 0 1 1 0 0.224
1037 126 0 27 3 3 2 1 1 2 0.502
1038 126 0 28 0 1 0 0 0 3 1.154
1039 126 0 29 2 2 0 1 1 0 0.139
1040 126 0 30 1 1 3 1 1 3 0.476
1041 126 0 31 1 1 0 1 1 0 0.202
1042 126 0 32 0 0 3 1 1 3 0.225
1043 126 0 33 3 3 1 1 0 2 1.815
1044 126 0 34 1 1 2 1 1 2 0.136
1045 126 0 35 2 0 2 0 0 1 0.706
1046 126 0 36 3 2 2 0 0 0 2.235
1047 126 0 37 1 1 1 1 1 1 0.141
1048 126 0 38 0 0 0 1 1 0 0.118
1049 126 0 39 1 2 0 0 1 0 1.6
1050 126 0 40 2 0 3 0 0 0 1.445
1051 126 0 41 1 1 2 1 1 2 0.115
1052 126 0 42 2 2 1 1 1 1 0.221
1053 126 0 43 1 1 1 1 1 1 0.18
1054 126 0 44 0 2 3 0 1 3 0.188
1055 126 0 45 2 2 2 1 1 2 0.131
1056 126 0 46 0 1 3 0 1 3 0.205
1057 126 0 47 0 0 3 1 1 3 0.18
1058 126 0 48 1 0 0 0 1 0 0.252
1059 126 0 49 1 1 1 1 1 1 0.162
1060 126 0 50 2 2 3 1 1 3 0.106
1061 126 0 51 0 0 0 1 1 0 0.133
1062 126 0 52 1 1 2 1 1 2 0.094
1063 126 0 53 1 2 1 0 1 1 0.121
1064 126 0 54 2 2 1 1 1 1 0.259
1065 126 0 55 1 1 2 1 1 2 0.056
1066 126 0 56 3 3 3 1 1 3 0.132
1067 126 0 57 1 2 1 0 1 1 0.11
1068 126 0 58 1 1 2 1 1 2 0.121
1069 126 0 59 1 2 2 0 1 2 0.083
1070 126 0 60 3 3 0 1 1 0 0.174
1071 126 0 61 0 0 0 1 1 0 0.134
1072 126 0 62 3 0 2 0 1 2 0.304
1073 126 0 63 0 0 2 1 1 2 0.067
1074 126 0 64 0 0 3 1 1 3 0.207
1075 126 0 65 0 0 0 1 1 0 0.134
1076 126 0 66 2 1 1 0 1 1 0.096
1077 126 0 67 0 1 3 0 1 3 0.107
1078 126 0 68 2 2 1 1 1 1 0.245
1079 126 0 69 2 1 3 0 1 3 0.187
1080 126 0 70 2 1 1 0 0 3 2.003
1081 126 0 71 0 0 1 1 1 1 0.173
1082 126 0 72 3 3 1 1 1 1 0.117
1083 126 0 73 2 2 2 1 1 2 0.144
1084 126 0 74 3 3 2 1 1 2 0.393
1085 126 0 75 0 0 2 1 1 2 0.249
1086 126 0 76 3 1 2 0 1 2 0.127
1087 126 0 77 3 3 1 1 1 1 0.105
1088 126 0 78 3 3 3 1 1 3 0.515
1089 126 0 79 3 3 3 1 1 3 0.239
1090 126 1 80 1 2 3 0 0 2 1.909
1091 126 1 81 1 1 1 1 1 1 0.099
1092 126 1 82 3 3 1 1 1 1 0.126
1093 126 1 83 3 3 3 1 1 3 0.232
1094 126 1 84 0 0 0 1 1 0 0.11
1095 126 1 85 0 0 3 1 1 3 0.263
1096 126 1 86 0 0 1 1 1 1 0.268
1097 126 1 87 2 0 1 0 0 2 0.896
1098 126 1 88 1 1 0 1 1 0 0.386
1099 126 1 89 2 2 3 1 1 3 0.131
1100 126 1 90 3 3 2 1 1 2 0.157
1101 126 1 91 3 0 2 0 1 2 0.085
1102 126 1 92 0 0 3 1 1 3 0.129
1103 126 1 93 1 1 1 1 1 1 0.139
1104 126 1 94 2 2 3 1 1 3 0.116
1105 126 1 95 2 2 1 1 1 1 0.174
1106 126 1 96 2 2 1 1 1 1 0.326
1107 126 1 97 1 1 1 1 1 1 0.136
1108 126 1 98 3 3 0 1 1 0 0.002
1109 126 1 99 2 2 1 1 1 1 0.193
1110 126 1 100 0 0 2 1 1 2 0.167
1111 126 1 101 3 3 0 1 1 0 0.271
1112 126 1 102 1 1 1 1 1 1 0.068
1113 126 1 103 3 3 3 1 1 3 0.304
1114 126 1 104 1 1 3 1 1 3 0.227
1115 126 1 105 2 2 3 1 1 3 0.169
1116 126 1 106 3 3 1 1 1 1 0.162
1117 126 1 107 1 2 1 0 0 2 1.019
1118 126 1 108 0 0 2 1 1 2 0.408
1119 126 1 109 1 1 0 1 1 0 0.168
1120 126 1 110 2 2 2 1 1 2 0.112
1121 126 1 111 3 3 2 1 1 2 0.315
1122 126 1 112 2 2 2 1 1 2 0.174
1123 126 1 113 1 0 0 0 1 0 0.374
1124 126 1 114 3 3 0 1 1 0 0.055
1125 126 1 115 2 2 3 1 1 3 0.147
1126 126 1 116 1 1 2 1 1 2 0.108
1127 126 1 117 0 0 3 1 1 3 0.086
1128 126 1 118 1 1 2 1 1 2 0.097
1129 126 1 119 0 0 2 1 1 2 0.14
1130 126 1 120 2 2 1 1 1 1 0.166
1131 126 1 121 0 0 3 1 1 3 0.238
1132 126 1 122 0 0 0 1 1 0 0.244
1133 126 1 123 3 3 0 1 1 0 0.154
1134 126 1 124 0 0 1 1 1 1 0.226
1135 126 1 125 3 3 1 1 1 1 0.169
1136 126 1 126 2 2 2 1 1 2 0.177
1137 126 1 127 3 3 2 1 1 2 0.104
1138 126 1 128 0 0 2 1 1 2 0.098
1139 126 1 129 3 3 2 1 1 2 0.157
1140 126 1 130 0 0 3 1 1 3 0.214
1141 126 1 131 1 0 3 0 0 1 0.909
1142 126 1 132 1 2 2 0 1 2 0.622
1143 126 1 133 2 1 3 0 1 3 0.134
1144 126 1 134 1 1 2 1 1 2 0.128
1145 126 1 135 2 2 3 1 1 3 0.089
1146 126 1 136 1 2 2 0 1 2 0.084
1147 126 1 137 2 2 1 1 1 1 0.159
1148 126 1 138 2 2 2 1 1 2 0.199
1149 126 1 139 1 2 0 0 1 0 0.159
1150 126 1 140 2 3 2 0 1 2 0.12
1151 126 1 141 3 3 0 1 1 0 0.112
1152 126 1 142 2 2 2 1 1 2 0.09
1153 126 1 143 3 3 1 1 1 1 0.149
1154 126 1 144 2 2 1 1 1 1 0.27
1155 126 1 145 0 1 1 0 1 1 0.115
1156 126 1 146 2 3 0 0 0 2 0.093
1157 126 1 147 2 2 0 1 1 0 0.268
1158 126 1 148 1 0 1 0 1 1 0.048
1159 126 1 149 2 3 2 0 1 2 0.077
1160 126 1 150 3 3 3 1 1 3 0.329
1161 126 1 151 3 1 2 0 0 1 0.139
1162 126 1 152 0 0 0 1 1 0 0.008
1163 126 1 153 3 3 2 1 1 2 0.214
1164 126 1 154 3 1 3 0 1 3 0.092
1165 126 1 155 1 1 0 1 1 0 0.167
1166 126 1 156 3 3 1 1 1 1 0.159
1167 126 1 157 1 2 1 0 1 1 0.152
1168 126 1 158 0 0 1 1 1 1 0.081
1169 126 1 159 2 2 0 1 1 0 0.092
1170 126 2 160 3 3 1 1 1 1 0.107
1171 126 2 161 0 0 2 1 1 2 0.182
1172 126 2 162 0 1 2 0 1 2 0.173
1173 126 2 163 1 1 2 1 1 2 0.214
1174 126 2 164 3 3 2 1 1 2 0.268
1175 126 2 165 1 1 3 1 1 3 0.145
1176 126 2 166 2 2 2 1 1 2 0.17
1177 126 2 167 2 0 3 0 0 2 1.026
1178 126 2 168 3 3 0 1 1 0 0.148
1179 126 2 169 0 0 0 1 1 0 0.077
1180 126 2 170 0 0 2 1 1 2 0.152
1181 126 2 171 1 1 1 1 1 1 0.209
1182 126 2 172 1 2 3 0 1 3 0.231
1183 126 2 173 1 1 1 1 1 1 0.174
1184 126 2 174 0 0 3 1 1 3 0.182
1185 126 2 175 0 1 0 0 0 2 0.542
1186 126 2 176 2 0 2 0 1 2 0.332
1187 126 2 177 0 0 2 1 1 2 0.127
1188 126 2 178 3 3 3 1 1 3 0.265
1189 126 2 179 0 1 1 0 1 1 0.11
1190 126 2 180 2 2 2 1 1 2 0.296
1191 126 2 181 2 2 2 1 1 2 0.188
1192 126 2 182 0 0 3 1 1 3 0.292
1193 126 2 183 0 0 2 1 1 2 0.183
1194 126 2 184 1 0 2 0 1 2 0.24
1195 126 2 185 3 3 2 1 1 2 0.149
1196 126 2 186 2 2 1 1 1 1 0.478
1197 126 2 187 2 2 3 1 1 3 0.14
1198 126 2 188 1 1 2 1 1 2 0.133
1199 126 2 189 0 1 3 0 1 3 0.126
1200 126 2 190 3 3 0 1 1 0 0.248
1201 126 2 191 0 1 2 0 1 2 0.078
1202 126 2 192 3 3 0 1 1 0 0.089
1203 126 2 193 0 0 1 1 1 1 0.196
1204 126 2 194 1 1 3 1 1 3 0.156
1205 126 2 195 0 0 2 1 1 2 0.165
1206 126 2 196 1 2 1 0 1 1 0.125
1207 126 2 197 1 1 0 1 1 0 0.199
1208 126 2 198 0 0 1 1 1 1 0.19
1209 126 2 199 0 2 2 0 0 0 0.614
1210 126 2 200 3 2 3 0 1 3 0.194
1211 126 2 201 0 1 1 0 1 1 0.042
1212 126 2 202 2 2 2 1 1 2 0.15
1213 126 2 203 2 2 1 1 1 1 0.127
1214 126 2 204 3 3 0 1 1 0 0.025
1215 126 2 205 2 2 1 1 1 1 0.134
1216 126 2 206 2 2 1 1 1 1 0.192
1217 126 2 207 3 2 1 0 1 1 0.167
1218 126 2 208 0 0 1 1 1 1 0.112
1219 126 2 209 3 0 3 0 1 3 0.154
1220 126 2 210 0 0 0 1 1 0 0.083
1221 126 2 211 3 3 2 1 0 1 0.083
1222 126 2 212 2 2 2 1 1 2 0.13
1223 126 2 213 2 1 0 0 1 0 0.556
1224 126 2 214 1 1 2 1 1 2 0.342
1225 126 2 215 1 1 2 1 1 2 0.28
1226 126 2 216 0 0 0 1 1 0 0.317
1227 126 2 217 2 3 3 0 1 3 0.128
1228 126 2 218 2 2 0 1 1 0 0.138
1229 126 2 219 0 0 2 1 1 2 0.131
1230 126 2 220 3 3 0 1 1 0 0.156
1231 126 2 221 2 2 3 1 1 3 0.197
1232 126 2 222 0 0 1 1 1 1 0.141
1233 126 2 223 0 2 2 0 1 2 0.134
1234 126 2 224 2 2 2 1 1 2 0.095
1235 126 2 225 1 1 3 1 1 3 0.122
1236 126 2 226 0 1 3 0 0 2 1.092
1237 126 2 227 2 1 0 0 1 0 0.239
1238 126 2 228 0 1 2 0 1 2 0.276
1239 126 2 229 0 1 0 0 1 0 0.233
1240 126 2 230 3 3 0 1 1 0 0.175
1241 126 2 231 3 3 0 1 1 0 0.103
1242 126 2 232 2 0 2 0 1 2 0.37
1243 126 2 233 3 3 2 1 1 2 0.127
1244 126 2 234 3 3 0 1 1 0 0.057
1245 126 2 235 2 2 2 1 1 2 0.149
1246 126 2 236 1 1 1 1 1 1 0.158
1247 126 2 237 2 2 1 1 1 1 0.151
1248 126 2 238 0 0 2 1 1 2 0.144
1249 126 2 239 1 1 3 1 1 3 0.281
1250 126 3 240 2 2 0 1 1 0 1.561
1251 126 3 241 3 3 2 1 1 2 0.239
1252 126 3 242 2 2 2 1 1 2 0.117
1253 126 3 243 0 0 1 1 1 1 0.127
1254 126 3 244 0 1 0 0 1 0 0.265
1255 126 3 245 2 2 2 1 1 2 0.077
1256 126 3 246 1 1 3 1 1 3 0.249
1257 126 3 247 1 1 1 1 1 1 0.191
1258 126 3 248 0 0 0 1 1 0 0.086
1259 126 3 249 1 0 3 0 0 1 0.641
1260 126 3 250 3 3 0 1 1 0 0.092
1261 126 3 251 1 0 0 0 1 0 0.09
1262 126 3 252 0 0 2 1 1 2 0.149
1263 126 3 253 2 3 0 0 0 2 0.51
1264 126 3 254 2 1 1 0 1 1 0.19
1265 126 3 255 0 1 1 0 1 1 0.069
1266 126 3 256 1 2 0 0 1 0 0.273
1267 126 3 257 3 2 0 0 1 0 0.085
1268 126 3 258 2 2 0 1 1 0 0.096
1269 126 3 259 3 3 3 1 1 3 0.139
1270 126 3 260 3 2 3 0 1 3 0.197
1271 126 3 261 1 1 2 1 1 2 0.161
1272 126 3 262 0 0 3 1 1 3 0.233
1273 126 3 263 3 1 0 0 1 0 0.143
1274 126 3 264 1 1 1 1 1 1 0.2
1275 126 3 265 0 2 3 0 1 3 0.143
1276 126 3 266 3 3 3 1 1 3 0.2
1277 126 3 267 3 1 3 0 1 3 0.207
1278 126 3 268 2 2 3 1 1 3 0.166
1279 126 3 269 0 0 1 1 1 1 0.127
1280 126 3 270 1 1 1 1 1 1 0.185
1281 126 3 271 3 3 2 1 1 2 0.208
1282 126 3 272 3 1 1 0 1 1 0.263
1283 126 3 273 3 0 2 0 1 2 0.14
1284 126 3 274 0 1 2 0 1 2 0.197
1285 126 3 275 0 1 2 0 1 2 0.205
1286 126 3 276 3 3 0 1 1 0 0.164
1287 126 3 277 1 1 3 1 1 3 0.188
1288 126 3 278 1 1 3 1 1 3 0.26
1289 126 3 279 0 0 1 1 1 1 0.137
1290 126 3 280 2 2 1 1 1 1 0.146
1291 126 3 281 1 2 3 0 0 2 0.587
1292 126 3 282 1 2 3 0 1 3 0.104
1293 126 3 283 2 1 3 0 1 3 0.194
1294 126 3 284 3 3 3 1 1 3 0.154
1295 126 3 285 1 1 3 1 1 3 0.194
1296 126 3 286 1 1 3 1 1 3 0.074
1297 126 3 287 3 3 3 1 1 3 0.133
1298 126 3 288 1 1 1 1 1 1 0.175
1299 126 3 289 3 2 0 0 1 0 0.487
1300 126 3 290 1 1 3 1 1 3 0.132
1301 126 3 291 1 0 3 0 1 3 0.11
1302 126 3 292 3 1 3 0 0 1 0.616
1303 126 3 293 3 3 0 1 1 0 0.212
1304 126 3 294 0 0 3 1 1 3 0.091
1305 126 3 295 2 2 0 1 1 0 0.15
1306 126 3 296 2 2 3 1 1 3 0.206
1307 126 3 297 2 2 3 1 1 3 0.341
1308 126 3 298 1 1 3 1 1 3 0.119
1309 126 3 299 0 1 0 0 1 0 0.113
1310 126 3 300 1 1 2 1 1 2 0.124
1311 126 3 301 2 2 1 1 1 1 0.149
1312 126 3 302 1 1 2 1 1 2 0.127
1313 126 3 303 0 0 3 1 1 3 0.137
1314 126 3 304 2 2 0 1 1 0 0.082
1315 126 3 305 0 0 2 1 1 2 0.125
1316 126 3 306 3 1 1 0 1 1 0.151
1317 126 3 307 3 3 0 1 1 0 0.24
1318 126 3 308 0 0 1 1 1 1 0.166
1319 126 3 309 0 1 0 0 0 1 0.095
1320 126 3 310 3 3 0 1 1 0 0.237
1321 126 3 311 3 3 1 1 1 1 0.243
1322 126 3 312 1 1 0 1 1 0 0.217
1323 126 3 313 1 1 3 1 1 3 0.319
1324 126 3 314 1 0 3 0 1 3 0.226
1325 126 3 315 2 0 2 0 1 2 0.568
1326 126 3 316 3 3 2 1 1 2 0.194
1327 126 3 317 2 2 2 1 1 2 0.201
1328 126 3 318 0 0 0 1 1 0 0.112
1329 126 3 319 0 0 0 1 1 0 0.09
1330 131 0 0 2 3 0 0 0 3 1.635
1331 131 0 1 0 2 0 0 0 2 1.434
1332 131 0 2 3 0 0 0 1 0 0.345
1333 131 0 3 3 3 3 1 1 3 0.731
1334 131 0 4 1 2 3 0 1 3 0.463
1335 131 0 5 2 2 0 1 1 0 0.269
1336 131 0 6 0 0 0 1 1 0 0.065
1337 131 0 7 2 2 0 1 1 0 0.317
1338 131 0 8 0 1 1 0 1 1 0.112
1339 131 0 9 2 0 2 0 1 2 1.13
1340 131 0 10 0 0 2 1 1 2 0.161
1341 131 0 11 1 2 1 0 1 1 0.265
1342 131 0 12 2 2 3 1 1 3 0.622
1343 131 0 13 2 2 2 1 1 2 0.374
1344 131 0 14 1 1 2 1 1 2 0.391
1345 131 0 15 1 1 2 1 1 2 0.056
1346 131 0 16 1 1 0 1 0 2 1.124
1347 131 0 17 2 2 2 1 1 2 0.462
1348 131 0 18 0 1 1 0 1 1 0.603
1349 131 0 19 3 3 1 1 1 1 0.212
1350 131 0 20 3 3 1 1 1 1 0.059
1351 131 0 21 0 0 2 1 1 2 0.727
1352 131 0 22 3 2 1 0 1 1 0.251
1353 131 0 23 2 1 2 0 1 2 0.544
1354 131 0 24 2 2 1 1 1 1 0.348
1355 131 0 25 3 3 1 1 1 1 0.235
1356 131 0 26 0 0 3 1 1 3 0.593
1357 131 0 27 3 3 3 1 1 3 0.09
1358 131 0 28 1 1 3 1 1 3 0.421
1359 131 0 29 0 0 1 1 1 1 0.308
1360 131 0 30 3 3 1 1 1 1 0.328
1361 131 0 31 3 3 2 1 1 2 0.394
1362 131 0 32 3 3 3 1 1 3 0.331
1363 131 0 33 3 2 3 0 1 3 0.333
1364 131 0 34 0 0 0 1 1 0 0.175
1365 131 0 35 0 0 1 1 1 1 0.327
1366 131 0 36 2 0 1 0 1 1 2.074
1367 131 0 37 2 2 0 1 1 0 0.254
1368 131 0 38 3 3 2 1 1 2 0.387
1369 131 0 39 0 0 1 1 1 1 0.26
1370 131 0 40 3 3 0 1 1 0 0.281
1371 131 0 41 0 0 0 1 1 0 0.109
1372 131 0 42 2 2 2 1 1 2 0.552
1373 131 0 43 1 1 1 1 1 1 0.29
1374 131 0 44 2 1 2 0 1 2 1.142
1375 131 0 45 0 2 1 0 0 3 2.219
1376 131 0 46 1 0 2 0 1 2 0.493
1377 131 0 47 2 2 3 1 1 3 0.49
1378 131 0 48 1 1 3 1 1 3 0.374
1379 131 0 49 0 0 3 1 1 3 0.295
1380 131 0 50 0 0 3 1 1 3 0.859
1381 131 0 51 3 3 3 1 1 3 0.171
1382 131 0 52 3 3 0 1 1 0 0.227
1383 131 0 53 0 0 0 1 1 0 0.217
1384 131 0 54 2 2 3 1 1 3 0.256
1385 131 0 55 3 3 0 1 1 0 0.229
1386 131 0 56 3 0 0 0 1 0 0.091
1387 131 0 57 0 1 1 0 1 1 0.262
1388 131 0 58 1 1 0 1 1 0 0.267
1389 131 0 59 3 2 3 0 1 3 0.192
1390 131 0 60 3 3 0 1 1 0 0.231
1391 131 0 61 3 1 0 0 1 0 0.094
1392 131 0 62 1 2 2 0 1 2 0.825
1393 131 0 63 1 2 0 0 1 0 0.426
1394 131 0 64 1 1 3 1 1 3 0.297
1395 131 0 65 0 1 3 0 1 3 0.845
1396 131 0 66 3 2 1 0 1 1 0.413
1397 131 0 67 3 3 3 1 1 3 0.061
1398 131 0 68 3 3 0 1 1 0 0.249
1399 131 0 69 1 1 1 1 1 1 0.431
1400 131 0 70 1 1 0 1 1 0 0.27
1401 131 0 71 0 0 0 1 1 0 0.114
1402 131 0 72 2 2 1 1 1 1 0.476
1403 131 0 73 1 1 1 1 1 1 0.249
1404 131 0 74 2 0 2 0 1 2 0.733
1405 131 0 75 3 3 3 1 1 3 0.145
1406 131 0 76 1 1 2 1 1 2 0.81
1407 131 0 77 1 1 1 1 1 1 0.369
1408 131 0 78 1 0 0 0 1 0 0.082
1409 131 0 79 2 2 3 1 1 3 0.333
1410 131 1 80 0 0 1 1 1 1 0.293
1411 131 1 81 0 1 1 0 1 1 0.264
1412 131 1 82 3 3 3 1 1 3 0.109
1413 131 1 83 3 3 2 1 1 2 0.44
1414 131 1 84 1 1 3 1 1 3 0.246
1415 131 1 85 3 0 0 0 1 0 0.076
1416 131 1 86 0 0 3 1 1 3 1.064
1417 131 1 87 0 0 1 1 1 1 0.352
1418 131 1 88 2 2 2 1 1 2 0.561
1419 131 1 89 0 1 1 0 1 1 0.555
1420 131 1 90 0 0 1 1 1 1 0.374
1421 131 1 91 3 3 1 1 1 1 1.127
1422 131 1 92 2 1 1 0 1 1 0.237
1423 131 1 93 3 3 0 1 1 0 0.355
1424 131 1 94 0 0 1 1 1 1 0.292
1425 131 1 95 0 0 3 1 1 3 0.295
1426 131 1 96 0 0 3 1 1 3 0.283
1427 131 1 97 0 2 0 0 1 0 0.24
1428 131 1 98 3 1 2 0 1 2 0.646
1429 131 1 99 3 3 0 1 1 0 0.301
1430 131 1 100 3 3 1 1 1 1 0.464
1431 131 1 101 3 3 0 1 1 0 0.286
1432 131 1 102 3 1 0 0 1 0 0.273
1433 131 1 103 2 2 0 1 1 0 0.198
1434 131 1 104 0 0 2 1 1 2 0.637
1435 131 1 105 0 1 0 0 1 0 0.277
1436 131 1 106 2 2 1 1 1 1 0.345
1437 131 1 107 0 0 2 1 1 2 0.651
1438 131 1 108 1 1 0 1 1 0 0.274
1439 131 1 109 2 2 2 1 1 2 0.583
1440 131 1 110 2 1 1 0 1 1 0.336
1441 131 1 111 1 1 2 1 1 2 0.355
1442 131 1 112 2 2 1 1 1 1 0.468
1443 131 1 113 2 2 2 1 1 2 0.386
1444 131 1 114 2 2 1 1 1 1 0.37
1445 131 1 115 3 3 0 1 1 0 0.307
1446 131 1 116 0 1 2 0 0 1 0.342
1447 131 1 117 2 2 2 1 1 2 0.588
1448 131 1 118 3 3 2 1 1 2 0.373
1449 131 1 119 2 2 3 1 1 3 0.358
1450 131 1 120 2 2 1 1 1 1 0.472
1451 131 1 121 3 3 0 1 1 0 0.325
1452 131 1 122 3 3 0 1 1 0 0.28
1453 131 1 123 2 1 2 0 1 2 0.412
1454 131 1 124 2 2 0 1 1 0 0.3
1455 131 1 125 0 1 1 0 1 1 0.463
1456 131 1 126 3 3 2 1 1 2 0.493
1457 131 1 127 2 2 3 1 1 3 0.426
1458 131 1 128 0 1 1 0 1 1 0.329
1459 131 1 129 1 1 3 1 1 3 0.524
1460 131 1 130 1 2 3 0 1 3 0.262
1461 131 1 131 3 3 3 1 1 3 0.203
1462 131 1 132 1 1 1 1 1 1 0.22
1463 131 1 133 2 2 2 1 1 2 0.595
1464 131 1 134 0 0 1 1 1 1 0.476
1465 131 1 135 2 0 0 0 0 1 1.961
1466 131 1 136 2 0 0 0 1 0 0.213
1467 131 1 137 2 2 0 1 1 0 0.284
1468 131 1 138 3 1 2 0 1 2 0.64
1469 131 1 139 0 0 0 1 1 0 0.119
1470 131 1 140 2 2 1 1 1 1 0.433
1471 131 1 141 0 0 2 1 1 2 0.655
1472 131 1 142 2 0 2 0 1 2 0.342
1473 131 1 143 1 1 0 1 1 0 0.248
1474 131 1 144 0 2 2 0 1 2 0.462
1475 131 1 145 2 2 0 1 1 0 0.492
1476 131 1 146 0 0 3 1 1 3 0.392
1477 131 1 147 3 3 3 1 1 3 0.297
1478 131 1 148 1 1 2 1 1 2 0.556
1479 131 1 149 0 0 3 1 1 3 0.423
1480 131 1 150 0 2 0 0 1 0 0.278
1481 131 1 151 1 0 2 0 1 2 0.794
1482 131 1 152 3 1 2 0 0 3 1.837
1483 131 1 153 1 1 1 1 0 3 1.821
1484 131 1 154 1 1 2 1 1 2 0.205
1485 131 1 155 1 1 3 1 1 3 0.308
1486 131 1 156 2 2 2 1 1 2 0.648
1487 131 1 157 2 2 3 1 1 3 0.271
1488 131 1 158 1 1 0 1 1 0 0.355
1489 131 1 159 2 2 1 1 1 1 0.533
1490 131 2 160 3 0 1 0 1 1 0.429
1491 131 2 161 2 2 2 1 1 2 0.508
1492 131 2 162 3 3 0 1 1 0 0.424
1493 131 2 163 3 3 0 1 1 0 0.263
1494 131 2 164 1 2 3 0 1 3 0.925
1495 131 2 165 0 0 1 1 1 1 0.394
1496 131 2 166 3 1 1 0 1 1 0.378
1497 131 2 167 0 1 2 0 1 2 0.523
1498 131 2 168 0 0 3 1 1 3 0.471
1499 131 2 169 3 3 1 1 1 1 0.42
1500 131 2 170 2 2 0 1 1 0 0.467
1501 131 2 171 1 1 3 1 1 3 0.288
1502 131 2 172 3 0 1 0 1 1 0.276
1503 131 2 173 0 0 3 1 1 3 0.297
1504 131 2 174 0 1 3 0 1 3 0.269
1505 131 2 175 3 0 2 0 1 2 0.737
1506 131 2 176 2 1 1 0 1 1 0.373
1507 131 2 177 3 1 2 0 1 2 0.454
1508 131 2 178 1 0 3 0 1 3 0.468
1509 131 2 179 3 3 1 1 1 1 0.369
1510 131 2 180 3 2 3 0 1 3 0.354
1511 131 2 181 2 1 1 0 1 1 0.324
1512 131 2 182 2 2 1 1 1 1 1.462
1513 131 2 183 3 3 2 1 1 2 0.448
1514 131 2 184 3 3 2 1 1 2 0.238
1515 131 2 185 1 1 3 1 1 3 0.292
1516 131 2 186 0 0 1 1 1 1 0.344
1517 131 2 187 3 3 1 1 1 1 0.33
1518 131 2 188 3 3 0 1 1 0 0.412
1519 131 2 189 1 1 2 1 1 2 0.588
1520 131 2 190 3 2 2 0 1 2 0.261
1521 131 2 191 1 1 1 1 1 1 0.442
1522 131 2 192 1 1 1 1 1 1 0.2
1523 131 2 193 1 0 1 0 1 1 0.223
1524 131 2 194 3 2 3 0 1 3 0.357
1525 131 2 195 0 0 0 1 1 0 0.327
1526 131 2 196 2 2 2 1 1 2 0.506
1527 131 2 197 0 0 2 1 1 2 0.422
1528 131 2 198 2 2 0 1 1 0 0.309
1529 131 2 199 1 0 0 0 1 0 0.295
1530 131 2 200 2 0 1 0 1 1 0.843
1531 131 2 201 0 0 2 1 1 2 0.411
1532 131 2 202 1 1 2 1 1 2 0.331
1533 131 2 203 2 3 0 0 1 0 0.414
1534 131 2 204 0 0 2 1 1 2 0.448
1535 131 2 205 0 0 0 1 1 0 0.286
1536 131 2 206 2 3 3 0 1 3 0.226
1537 131 2 207 3 2 3 0 1 3 0.264
1538 131 2 208 3 2 3 0 1 3 0.285
1539 131 2 209 1 0 3 0 1 3 0.626
1540 131 2 210 1 1 2 1 1 2 0.41
1541 131 2 211 2 2 2 1 1 2 0.954
1542 131 2 212 1 2 3 0 1 3 0.31
1543 131 2 213 2 2 2 1 1 2 0.409
1544 131 2 214 3 3 0 1 1 0 0.361
1545 131 2 215 0 0 3 1 1 3 0.33
1546 131 2 216 3 3 3 1 1 3 0.301
1547 131 2 217 1 1 3 1 1 3 0.272
1548 131 2 218 1 0 0 0 1 0 0.261
1549 131 2 219 0 0 0 1 1 0 0.058
1550 131 2 220 2 2 2 1 1 2 0.518
1551 131 2 221 3 3 2 1 1 2 0.378
1552 131 2 222 1 1 0 1 1 0 0.363
1553 131 2 223 3 3 3 1 1 3 0.124
1554 131 2 224 1 1 3 1 1 3 0.246
1555 131 2 225 3 3 2 1 1 2 0.395
1556 131 2 226 2 2 0 1 1 0 0.427
1557 131 2 227 1 0 3 0 1 3 0.363
1558 131 2 228 3 0 1 0 1 1 0.796
1559 131 2 229 2 2 3 1 1 3 0.27
1560 131 2 230 1 0 0 0 1 0 0.323
1561 131 2 231 1 1 3 1 1 3 0.197
1562 131 2 232 3 3 2 1 1 2 0.301
1563 131 2 233 1 1 2 1 1 2 0.544
1564 131 2 234 3 3 0 1 1 0 0.335
1565 131 2 235 0 1 1 0 1 1 0.673
1566 131 2 236 3 1 3 0 1 3 0.375
1567 131 2 237 3 1 2 0 1 2 0.44
1568 131 2 238 1 0 0 0 1 0 0.262
1569 131 2 239 1 1 2 1 1 2 0.443
1570 131 3 240 1 2 0 0 1 0 0.34
1571 131 3 241 2 2 3 1 1 3 0.374
1572 131 3 242 3 0 2 0 1 2 0.679
1573 131 3 243 3 3 1 1 1 1 0.413
1574 131 3 244 1 1 3 1 1 3 0.317
1575 131 3 245 3 1 0 0 1 0 0.288
1576 131 3 246 3 1 1 0 1 1 0.292
1577 131 3 247 1 1 0 1 1 0 0.376
1578 131 3 248 0 0 2 1 1 2 0.536
1579 131 3 249 3 3 1 1 1 1 0.437
1580 131 3 250 3 3 0 1 1 0 0.388
1581 131 3 251 2 1 0 0 1 0 0.291
1582 131 3 252 3 3 3 1 1 3 0.343
1583 131 3 253 0 0 2 1 1 2 0.473
1584 131 3 254 0 2 2 0 1 2 0.551
1585 131 3 255 2 2 3 1 1 3 0.337
1586 131 3 256 3 3 1 1 1 1 0.371
1587 131 3 257 1 1 3 1 1 3 0.66
1588 131 3 258 2 2 0 1 1 0 0.379
1589 131 3 259 0 0 2 1 1 2 0.444
1590 131 3 260 1 1 2 1 1 2 0.61
1591 131 3 261 1 1 1 1 1 1 0.411
1592 131 3 262 3 3 1 1 1 1 0.57
1593 131 3 263 3 3 2 1 1 2 0.404
1594 131 3 264 1 1 0 1 1 0 0.339
1595 131 3 265 1 1 2 1 1 2 0.405
1596 131 3 266 3 3 1 1 1 1 0.389
1597 131 3 267 3 3 0 1 1 0 0.309
1598 131 3 268 0 1 2 0 1 2 0.633
1599 131 3 269 1 1 0 1 1 0 0.416
1600 131 3 270 0 0 0 1 1 0 0.352
1601 131 3 271 0 0 0 1 1 0 0.385
1602 131 3 272 2 2 2 1 1 2 0.45
1603 131 3 273 3 3 3 1 1 3 0.416
1604 131 3 274 1 1 1 1 1 1 0.415
1605 131 3 275 2 2 1 1 1 1 0.287
1606 131 3 276 0 0 3 1 1 3 1.043
1607 131 3 277 0 2 3 0 1 3 0.604
1608 131 3 278 0 0 3 1 1 3 0.373
1609 131 3 279 1 2 2 0 1 2 0.518
1610 131 3 280 2 2 2 1 1 2 0.338
1611 131 3 281 3 3 2 1 1 2 0.372
1612 131 3 282 2 2 3 1 1 3 0.309
1613 131 3 283 3 3 2 1 1 2 0.36
1614 131 3 284 2 2 2 1 1 2 0.281
1615 131 3 285 3 3 1 1 0 2 0.413
1616 131 3 286 2 2 2 1 1 2 0.576
1617 131 3 287 3 3 1 1 1 1 0.426
1618 131 3 288 0 0 1 1 1 1 0.393
1619 131 3 289 1 1 0 1 1 0 0.377
1620 131 3 290 1 1 1 1 1 1 0.314
1621 131 3 291 3 2 0 0 1 0 0.334
1622 131 3 292 2 2 1 1 1 1 0.32
1623 131 3 293 1 1 1 1 1 1 0.525
1624 131 3 294 3 3 0 1 1 0 0.361
1625 131 3 295 1 1 3 1 1 3 0.458
1626 131 3 296 1 1 2 1 1 2 0.856
1627 131 3 297 3 0 3 0 1 3 0.424
1628 131 3 298 0 0 2 1 1 2 0.519
1629 131 3 299 1 1 2 1 1 2 0.355
1630 131 3 300 0 0 0 1 1 0 0.58
1631 131 3 301 2 2 3 1 1 3 0.494
1632 131 3 302 3 3 2 1 1 2 0.282
1633 131 3 303 3 3 1 1 1 1 0.527
1634 131 3 304 2 2 1 1 1 1 0.363
1635 131 3 305 0 1 2 0 1 2 0.428
1636 131 3 306 0 1 1 0 1 1 0.539
1637 131 3 307 3 3 1 1 1 1 0.31
1638 131 3 308 0 0 3 1 1 3 0.505
1639 131 3 309 0 0 0 1 1 0 0.422
1640 131 3 310 3 3 0 1 1 0 0.581
1641 131 3 311 1 1 0 1 1 0 0.431
1642 131 3 312 2 1 2 0 1 2 1.694
1643 131 3 313 2 3 0 0 1 0 0.56
1644 131 3 314 3 3 0 1 1 0 0.378
1645 131 3 315 0 1 3 0 1 3 0.523
1646 131 3 316 1 1 2 1 1 2 0.614
1647 131 3 317 0 1 0 0 1 0 0.447
1648 131 3 318 1 1 0 1 1 0 0.349
1649 131 3 319 3 1 2 0 1 2 0.671
1650 135 0 0 1 1 2 1 1 2 0.36
1651 135 0 1 2 0 1 0 1 1 0.331
1652 135 0 2 3 3 0 1 1 0 0.384
1653 135 0 3 0 0 1 1 1 1 0.226
1654 135 0 4 3 3 3 1 1 3 0.522
1655 135 0 5 0 0 0 1 1 0 0.151
1656 135 0 6 1 1 3 1 1 3 1.074
1657 135 0 7 2 1 2 0 1 2 0.796
1658 135 0 8 2 2 0 1 1 0 0.368
1659 135 0 9 2 2 0 1 1 0 0.387
1660 135 0 10 2 2 0 1 1 0 0.229
1661 135 0 11 0 0 1 1 1 1 0.285
1662 136 0 0 1 1 0 1 0 3 0.563
1663 136 0 1 0 0 1 1 1 1 0.109
1664 135 0 12 1 1 2 1 1 2 1.154
1665 136 0 2 3 2 2 0 1 2 0.548
1666 135 0 13 3 2 0 0 0 2 0.857
1667 136 0 3 1 1 3 1 1 3 0.3
1668 135 0 14 1 1 3 1 0 2 1.102
1669 136 0 4 1 1 1 1 1 1 0.228
1670 135 0 15 2 2 1 1 1 1 0.714
1671 136 0 5 3 1 0 0 0 1 1.319
1672 135 0 16 1 1 1 1 1 1 0.24
1673 136 0 6 3 3 2 1 1 2 0.543
1674 135 0 17 2 2 3 1 1 3 0.68
1675 136 0 7 2 2 3 1 0 1 0.862
1676 135 0 18 0 0 3 1 1 3 0.288
1677 136 0 8 0 0 1 1 1 1 0.142
1678 135 0 19 1 0 2 0 0 0 1.222
1679 136 0 9 1 1 1 1 1 1 0.124
1680 136 0 10 2 2 0 1 1 0 0.243
1681 135 0 20 3 3 0 1 0 1 1.182
1682 136 0 11 0 0 3 1 0 0 0.901
1683 135 0 21 2 2 1 1 1 1 0.391
1684 135 0 22 2 2 3 1 1 3 0.441
1685 136 0 12 2 0 2 0 1 2 1.932
1686 135 0 23 3 3 3 1 1 3 0.297
1687 136 0 13 2 2 0 1 1 0 0.385
1688 135 0 24 1 1 3 1 1 3 0.239
1689 136 0 14 1 1 0 1 1 0 0.254
1690 135 0 25 1 1 2 1 1 2 0.678
1691 136 0 15 2 2 1 1 1 1 0.192
1692 135 0 26 0 0 3 1 1 3 0.398
1693 136 0 16 0 2 0 0 1 0 1.077
1694 135 0 27 1 1 2 1 1 2 0.88
1695 136 0 17 0 1 1 0 0 2 1.009
1696 135 0 28 0 0 3 1 1 3 0.209
1697 136 0 18 2 2 1 1 0 3 1.108
1698 135 0 29 3 3 3 1 1 3 0.362
1699 136 0 19 3 1 0 0 0 2 1.251
1700 135 0 30 3 3 0 1 1 0 0.333
1701 135 0 31 1 1 1 1 1 1 0.498
1702 136 0 20 3 3 0 1 1 0 1.029
1703 135 0 32 1 1 3 1 1 3 0.272
1704 136 0 21 1 0 0 0 0 3 1.867
1705 135 0 33 0 0 2 1 1 2 0.454
1706 136 0 22 1 2 0 0 0 2 0.719
1707 135 0 34 1 2 0 0 0 3 0.63
1708 136 0 23 3 3 2 1 1 2 0.26
1709 135 0 35 3 0 3 0 1 3 0.803
1710 136 0 24 3 3 2 1 1 2 1.525
1711 135 0 36 1 2 2 0 0 1 0.999
1712 136 0 25 1 0 0 0 0 3 1.29
1713 135 0 37 3 3 3 1 1 3 0.31
1714 136 0 26 1 1 2 1 1 2 0.451
1715 135 0 38 1 2 0 0 1 0 0.331
1716 136 0 27 0 0 2 1 1 2 0.468
1717 135 0 39 2 2 0 1 1 0 0.688
1718 136 0 28 3 3 2 1 0 3 0.758
1719 135 0 40 1 0 3 0 0 1 0.967
1720 136 0 29 2 2 1 1 1 1 0.37
1721 135 0 41 0 0 2 1 1 2 0.792
1722 136 0 30 3 3 1 1 1 1 0.221
1723 135 0 42 1 1 1 1 1 1 0.332
1724 136 0 31 3 1 3 0 1 3 0.656
1725 135 0 43 1 1 3 1 1 3 0.257
1726 136 0 32 0 0 1 1 0 2 0.563
1727 135 0 44 2 2 2 1 1 2 0.647
1728 136 0 33 2 2 3 1 1 3 0.302
1729 135 0 45 2 2 1 1 1 1 0.369
1730 135 0 46 1 1 2 1 1 2 0.387
1731 136 0 34 0 0 3 1 0 1 2.07
1732 135 0 47 3 3 1 1 1 1 0.485
1733 136 0 35 1 1 1 1 0 2 0.426
1734 136 0 36 3 3 1 1 1 1 0.21
1735 135 0 48 0 0 3 1 1 3 0.917
1736 136 0 37 3 2 0 0 1 0 0.349
1737 135 0 49 3 3 2 1 1 2 0.564
1738 136 0 38 2 1 2 0 0 3 1.476
1739 135 0 50 0 2 0 0 0 1 1.136
1740 135 0 51 0 0 3 1 1 3 0.779
1741 136 0 39 0 0 2 1 1 2 1.414
1742 135 0 52 3 3 1 1 1 1 0.446
1743 136 0 40 2 2 2 1 1 2 0.358
1744 136 0 41 2 2 3 1 1 3 0.261
1745 135 0 53 3 3 1 1 1 1 0.398
1746 136 0 42 0 0 0 1 1 0 0.558
1747 135 0 54 2 2 1 1 1 1 0.416
1748 135 0 55 2 1 2 0 1 2 0.53
1749 136 0 43 2 3 0 0 0 3 1.101
1750 135 0 56 1 1 3 1 1 3 0.319
1751 136 0 44 0 0 1 1 0 2 0.549
1752 135 0 57 0 0 1 1 0 0 0.116
1753 136 0 45 1 1 2 1 0 3 0.64
1754 136 0 46 3 3 1 1 1 1 0.168
1755 135 0 58 1 1 2 1 0 3 1.492
1756 136 0 47 1 1 1 1 0 2 0.669
1757 135 0 59 2 2 2 1 1 2 0.658
1758 136 0 48 2 3 0 0 0 3 1.284
1759 135 0 60 3 0 2 0 0 0 0.891
1760 136 0 49 1 1 0 1 1 0 0.301
1761 135 0 61 1 1 2 1 0 3 0.286
1762 136 0 50 3 3 1 1 1 1 0.221
1763 135 0 62 1 1 2 1 1 2 0.408
1764 136 0 51 1 1 3 1 1 3 0.304
1765 135 0 63 3 3 3 1 1 3 0.585
1766 136 0 52 0 1 3 0 0 2 1.048
1767 135 0 64 2 2 3 1 1 3 0.339
1768 136 0 53 0 0 0 1 1 0 0.305
1769 135 0 65 2 0 0 0 1 0 0.919
1770 136 0 54 1 1 2 1 1 2 0.161
1771 135 0 66 2 2 3 1 1 3 0.342
1772 136 0 55 2 0 1 0 1 1 0.975
1773 135 0 67 0 0 0 1 1 0 0.41
1774 136 0 56 1 1 1 1 1 1 0.247
1775 135 0 68 1 2 0 0 0 1 1.836
1776 136 0 57 3 3 0 1 0 2 0.618
1777 135 0 69 3 3 2 1 1 2 0.51
1778 136 0 58 1 1 2 1 1 2 0.85
1779 135 0 70 2 1 3 0 0 1 0.908
1780 136 0 59 1 0 0 0 1 0 1.228
1781 135 0 71 2 2 0 1 1 0 0.415
1782 136 0 60 0 1 3 0 1 3 0.699
1783 135 0 72 0 0 0 1 1 0 0.289
1784 136 0 61 3 3 1 1 0 3 0.95
1785 135 0 73 0 0 3 1 1 3 0.406
1786 136 0 62 1 2 2 0 1 2 1.122
1787 135 0 74 0 1 1 0 1 1 0.6
1788 135 0 75 1 2 3 0 1 3 0.642
1789 136 0 63 1 2 0 0 0 3 1.869
1790 135 0 76 0 0 2 1 1 2 0.459
1791 136 0 64 2 2 1 1 1 1 0.561
1792 135 0 77 3 3 2 1 1 2 0.427
1793 136 0 65 3 3 1 1 1 1 0.368
1794 136 0 66 0 0 0 1 0 2 0.894
1795 135 0 78 2 2 3 1 1 3 1.868
1796 136 0 67 3 3 1 1 1 1 0.229
1797 135 0 79 0 0 2 1 1 2 0.265
1798 136 0 68 1 1 2 1 1 2 0.295
1799 136 0 69 1 1 1 1 1 1 0.288
1800 135 1 80 2 2 0 1 0 3 1.68
1801 136 0 70 3 0 1 0 1 1 0.681
1802 136 0 71 1 1 0 1 1 0 0.156
1803 135 1 81 2 0 1 0 0 0 0.872
1804 136 0 72 2 2 3 1 1 3 0.296
1805 135 1 82 1 1 1 1 1 1 0.236
1806 135 1 83 1 2 1 0 1 1 0.788
1807 136 0 73 0 1 0 0 0 3 1.777
1808 135 1 84 3 3 2 1 1 2 0.344
1809 136 0 74 2 2 3 1 1 3 0.52
1810 135 1 85 0 0 3 1 1 3 0.476
1811 136 0 75 2 0 2 0 1 2 0.561
1812 135 1 86 3 3 2 1 1 2 0.635
1813 136 0 76 3 1 0 0 0 3 0.672
1814 135 1 87 3 3 0 1 1 0 0.34
1815 136 0 77 2 2 3 1 0 2 0.646
1816 135 1 88 1 2 2 0 1 2 0.536
1817 136 0 78 1 1 3 1 1 3 0.166
1818 136 0 79 1 1 1 1 1 1 0.203
1819 135 1 89 3 2 0 0 0 1 1.109
1820 135 1 90 1 0 3 0 0 0 0.609
1821 135 1 91 2 1 0 0 1 0 1.567
1822 135 1 92 1 2 2 0 1 2 0.631
1823 136 1 80 2 1 1 0 1 1 1.078
1824 135 1 93 1 1 3 1 1 3 0.656
1825 136 1 81 3 3 1 1 0 2 0.449
1826 135 1 94 1 2 3 0 1 3 0.569
1827 136 1 82 2 2 2 1 0 3 0.624
1828 135 1 95 0 0 1 1 1 1 0.356
1829 136 1 83 3 1 3 0 0 2 0.64
1830 135 1 96 0 0 0 1 1 0 0.326
1831 136 1 84 1 1 1 1 1 1 0.44
1832 135 1 97 2 2 3 1 1 3 0.378
1833 136 1 85 1 0 0 0 0 3 0.62
1834 135 1 98 3 3 1 1 1 1 0.493
1835 136 1 86 3 3 2 1 1 2 0.42
1836 135 1 99 0 0 2 1 1 2 0.443
1837 136 1 87 3 2 0 0 0 3 0.792
1838 135 1 100 0 0 0 1 1 0 0.38
1839 136 1 88 0 0 2 1 1 2 1.346
1840 135 1 101 0 1 3 0 1 3 0.622
1841 136 1 89 3 3 0 1 1 0 0.285
1842 135 1 102 0 0 3 1 1 3 0.232
1843 136 1 90 3 3 2 1 1 2 0.157
1844 135 1 103 0 0 1 1 1 1 0.416
1845 136 1 91 3 3 1 1 1 1 0.395
1846 135 1 104 2 2 3 1 1 3 0.53
1847 136 1 92 0 1 3 0 0 2 0.976
1848 135 1 105 1 1 0 1 0 3 1.091
1849 136 1 93 0 0 3 1 0 2 1.74
1850 135 1 106 1 2 1 0 1 1 0.56
1851 136 1 94 0 0 2 1 1 2 0.204
1852 135 1 107 2 2 1 1 1 1 0.412
1853 136 1 95 0 0 2 1 1 2 0.096
1854 135 1 108 2 3 2 0 1 2 1.15
1855 136 1 96 2 2 2 1 0 3 1.976
1856 135 1 109 3 3 2 1 1 2 0.34
1857 136 1 97 3 3 1 1 1 1 0.16
1858 135 1 110 0 0 0 1 1 0 0.248
1859 136 1 98 3 0 3 0 0 2 0.437
1860 135 1 111 1 1 3 1 0 0 0.688
1861 136 1 99 0 2 3 0 0 2 1.164
1862 135 1 112 1 1 2 1 1 2 0.459
1863 136 1 100 1 1 3 1 1 3 0.329
1864 135 1 113 3 3 2 1 1 2 0.41
1865 136 1 101 0 0 2 1 1 2 0.353
1866 135 1 114 0 0 1 1 1 1 0.22
1867 136 1 102 3 2 2 0 0 3 1.079
1868 135 1 115 0 0 3 1 1 3 0.452
1869 136 1 103 1 1 3 1 1 3 0.287
1870 135 1 116 1 1 0 1 1 0 0.26
1871 135 1 117 3 3 0 1 1 0 0.203
1872 136 1 104 0 2 0 0 0 2 1.28
1873 135 1 118 1 2 3 0 1 3 0.467
1874 136 1 105 2 2 1 1 0 3 0.617
1875 135 1 119 1 2 2 0 1 2 0.514
1876 136 1 106 0 0 0 1 0 1 0.786
1877 135 1 120 3 3 0 1 1 0 0.32
1878 136 1 107 2 0 0 0 1 0 0.708
1879 135 1 121 0 0 3 1 1 3 0.405
1880 136 1 108 0 0 1 1 1 1 0.206
1881 135 1 122 1 1 1 1 1 1 0.518
1882 136 1 109 2 0 0 0 1 0 0.634
1883 136 1 110 1 1 1 1 0 2 0.454
1884 135 1 123 2 2 0 1 1 0 1.444
1885 136 1 111 1 1 2 1 1 2 0.46
1886 135 1 124 3 3 3 1 1 3 0.4
1887 136 1 112 2 2 0 1 1 0 0.223
1888 135 1 125 1 1 2 1 1 2 0.482
1889 136 1 113 2 2 0 1 1 0 0.074
1890 135 1 126 3 1 0 0 0 1 1.121
1891 136 1 114 1 2 1 0 0 2 0.962
1892 136 1 115 0 0 2 1 1 2 0.263
1893 135 1 127 0 1 2 0 0 1 2.077
1894 136 1 116 0 0 0 1 1 0 0.233
1895 135 1 128 2 1 2 0 0 0 1.014
1896 136 1 117 2 3 2 0 1 2 0.948
1897 135 1 129 0 0 1 1 1 1 0.342
1898 136 1 118 1 1 2 1 1 2 0.413
1899 135 1 130 0 2 2 0 1 2 0.474
1900 136 1 119 3 3 3 1 1 3 0.865
1901 135 1 131 3 3 0 1 1 0 0.249
1902 136 1 120 2 2 0 1 1 0 0.269
1903 135 1 132 3 0 0 0 1 0 0.368
1904 135 1 133 3 3 3 1 1 3 0.387
1905 136 1 121 2 3 3 0 0 2 1.399
1906 136 1 122 3 3 3 1 1 3 0.267
1907 135 1 134 2 3 0 0 0 1 0.869
1908 136 1 123 2 2 1 1 0 3 0.717
1909 135 1 135 1 1 3 1 1 3 0.377
1910 136 1 124 3 3 2 1 0 3 0.49
1911 135 1 136 1 1 3 1 1 3 0.316
1912 135 1 137 3 0 2 0 1 2 0.897
1913 136 1 125 1 0 1 0 0 0 1.383
1914 135 1 138 0 2 3 0 1 3 0.769
1915 136 1 126 1 1 0 1 0 2 0.852
1916 136 1 127 3 3 1 1 1 1 0.388
1917 135 1 139 2 2 0 1 1 0 0.405
1918 136 1 128 1 1 1 1 0 2 0.593
1919 135 1 140 2 0 2 0 1 2 0.934
1920 136 1 129 2 2 1 1 1 1 0.162
1921 135 1 141 1 1 1 1 1 1 0.404
1922 136 1 130 0 0 3 1 1 3 0.176
1923 135 1 142 0 2 3 0 0 2 1.35
1924 136 1 131 0 1 0 0 0 3 0.614
1925 135 1 143 2 2 3 1 1 3 0.249
1926 136 1 132 2 2 2 1 0 3 1.031
1927 135 1 144 3 3 2 1 0 1 0.352
1928 136 1 133 3 0 1 0 0 3 0.785
1929 135 1 145 0 0 1 1 1 1 0.424
1930 136 1 134 3 3 0 1 0 2 0.915
1931 135 1 146 1 1 3 1 1 3 0.617
1932 136 1 135 3 3 1 1 1 1 0.249
1933 135 1 147 3 2 3 0 0 0 0.85
1934 136 1 136 3 3 3 1 1 3 0.187
1935 136 1 137 1 1 1 1 1 1 0.591
1936 135 1 148 2 2 2 1 0 1 2.199
1937 136 1 138 3 3 3 1 1 3 0.093
1938 135 1 149 0 0 1 1 1 1 0.54
1939 136 1 139 3 3 3 1 1 3 0.229
1940 135 1 150 1 1 1 1 1 1 0.409
1941 136 1 140 0 0 1 1 1 1 0.392
1942 136 1 141 2 3 1 0 0 3 0.997
1943 135 1 151 1 0 0 0 0 3 2.347
1944 135 1 152 0 0 0 1 1 0 0.474
1945 136 1 142 2 3 0 0 0 3 1.192
1946 136 1 143 1 1 1 1 1 1 0.332
1947 135 1 153 0 1 1 0 0 2 1.16
1948 136 1 144 1 1 3 1 1 3 0.155
1949 135 1 154 0 0 1 1 1 1 0.594
1950 136 1 145 3 3 1 1 1 1 0.353
1951 135 1 155 2 0 1 0 1 1 0.685
1952 136 1 146 0 0 2 1 1 2 1.415
1953 135 1 156 3 1 1 0 1 1 0.421
1954 136 1 147 2 2 1 1 0 3 0.671
1955 135 1 157 1 1 3 1 1 3 0.278
1956 136 1 148 2 2 2 1 1 2 0.454
1957 135 1 158 2 2 2 1 1 2 0.46
1958 136 1 149 3 3 1 1 1 1 0.152
1959 135 1 159 1 1 1 1 1 1 0.476
1960 136 1 150 2 2 2 1 1 2 0.126
1961 135 2 160 0 1 3 0 0 1 0.641
1962 136 1 151 3 3 2 1 1 2 0.332
1963 135 2 161 0 0 2 1 1 2 0.398
1964 136 1 152 1 0 2 0 1 2 0.81
1965 136 1 153 1 1 1 1 1 1 0.433
1966 135 2 162 3 1 2 0 1 2 1.504
1967 136 1 154 1 0 2 0 0 3 0.82
1968 135 2 163 2 2 2 1 1 2 0.538
1969 136 1 155 0 1 3 0 1 3 1.045
1970 135 2 164 1 1 1 1 1 1 0.807
1971 136 1 156 3 3 1 1 1 1 0.291
1972 135 2 165 3 3 0 1 1 0 0.394
1973 136 1 157 2 2 1 1 0 2 0.468
1974 135 2 166 2 1 3 0 0 1 0.893
1975 136 1 158 2 2 3 1 1 3 0.345
1976 135 2 167 1 2 2 0 0 1 0.56
1977 136 1 159 2 2 2 1 1 2 0.248
1978 135 2 168 0 0 3 1 1 3 0.4
1979 136 2 160 2 2 2 1 1 2 0.648
1980 135 2 169 0 0 3 1 1 3 0.386
1981 136 2 161 1 1 0 1 0 2 0.509
1982 135 2 170 1 1 0 1 1 0 0.292
1983 135 2 171 0 0 0 1 1 0 0.329
1984 136 2 162 0 1 0 0 1 0 0.689
1985 136 2 163 1 1 3 1 1 3 0.163
1986 135 2 172 2 2 3 1 1 3 1.134
1987 136 2 164 1 1 2 1 1 2 0.273
1988 135 2 173 3 1 0 0 0 1 0.789
1989 136 2 165 0 2 2 0 0 3 0.666
1990 135 2 174 2 2 1 1 1 1 0.381
1991 136 2 166 3 1 2 0 0 3 1.185
1992 135 2 175 2 2 3 1 1 3 0.415
1993 136 2 167 1 1 0 1 0 2 1.173
1994 135 2 176 1 1 2 1 1 2 1.217
1995 136 2 168 1 1 3 1 1 3 0.13
1996 135 2 177 1 1 1 1 1 1 0.405
1997 136 2 169 1 1 3 1 1 3 0.241
1998 135 2 178 3 3 3 1 1 3 0.375
1999 136 2 170 3 1 0 0 0 3 0.627
2000 135 2 179 3 1 2 0 0 1 0.841
2001 136 2 171 1 2 0 0 1 0 1.347
2002 135 2 180 2 1 3 0 0 1 0.767
2003 136 2 172 3 2 2 0 1 2 0.278
2004 135 2 181 3 3 0 1 1 0 0.279
2005 136 2 173 3 0 3 0 0 0 0.879
2006 135 2 182 1 1 3 1 1 3 0.301
2007 136 2 174 2 2 1 1 1 1 0.791
2008 135 2 183 2 2 3 1 1 3 0.531
2009 136 2 175 1 1 2 1 1 2 0.182
2010 135 2 184 0 0 2 1 0 3 1.072
2011 136 2 176 2 0 1 0 0 0 0.874
2012 135 2 185 0 0 2 1 1 2 0.238
2013 136 2 177 2 2 2 1 1 2 0.473
2014 135 2 186 3 1 3 0 0 1 0.709
2015 136 2 178 0 0 0 1 0 2 0.523
2016 135 2 187 0 0 2 1 1 2 0.383
2017 136 2 179 0 0 1 1 1 1 0.183
2018 135 2 188 0 0 2 1 1 2 0.386
2019 136 2 180 2 3 1 0 0 3 0.948
2020 135 2 189 3 3 1 1 1 1 0.404
2021 136 2 181 2 0 0 0 0 3 0.728
2022 135 2 190 0 0 0 1 1 0 0.39
2023 136 2 182 1 1 3 1 1 3 0.149
2024 135 2 191 3 3 2 1 1 2 0.712
2025 136 2 183 3 3 2 1 1 2 0.203
2026 135 2 192 1 1 0 1 1 0 0.591
2027 136 2 184 2 2 3 1 0 1 1.007
2028 135 2 193 3 3 1 1 1 1 0.314
2029 136 2 185 0 2 3 0 1 3 1.729
2030 135 2 194 1 1 1 1 1 1 0.655
2031 135 2 195 1 1 0 1 1 0 0.375
2032 136 2 186 2 0 2 0 0 3 1.438
2033 136 2 187 3 3 3 1 1 3 0.489
2034 135 2 196 0 0 3 1 0 2 0.586
2035 135 2 197 1 2 3 0 1 3 0.857
2036 136 2 188 2 2 3 1 1 3 1.235
2037 135 2 198 0 0 3 1 1 3 0.282
2038 136 2 189 2 2 0 1 1 0 0.202
2039 136 2 190 1 1 3 1 1 3 0.325
2040 135 2 199 1 1 2 1 1 2 0.368
2041 135 2 200 2 2 1 1 1 1 0.611
2042 136 2 191 1 0 0 0 1 0 0.837
2043 135 2 201 0 0 1 1 1 1 0.493
2044 136 2 192 3 3 1 1 1 1 0.634
2045 135 2 202 0 0 1 1 1 1 0.108
2046 136 2 193 2 0 0 0 1 0 0.814
2047 135 2 203 0 0 2 1 1 2 0.328
2048 136 2 194 3 3 0 1 0 3 0.724
2049 135 2 204 2 1 2 0 0 1 0.701
2050 136 2 195 2 2 1 1 1 1 0.337
2051 135 2 205 3 3 2 1 1 2 0.439
2052 136 2 196 0 0 2 1 1 2 0.224
2053 135 2 206 1 2 0 0 0 2 0.664
2054 136 2 197 2 2 1 1 0 3 0.547
2055 135 2 207 1 1 0 1 1 0 0.372
2056 136 2 198 3 0 3 0 1 3 0.502
2057 135 2 208 2 2 2 1 1 2 0.343
2058 136 2 199 3 1 3 0 1 3 0.367
2059 136 2 200 1 1 2 1 1 2 0.261
2060 135 2 209 3 3 3 1 1 3 0.507
2061 135 2 210 1 1 3 1 1 3 0.361
2062 136 2 201 3 3 2 1 0 3 1.647
2063 135 2 211 3 3 1 1 1 1 0.428
2064 136 2 202 3 1 0 0 0 3 1.195
2065 135 2 212 0 1 2 0 0 1 0.733
2066 136 2 203 0 0 3 1 1 3 0.207
2067 135 2 213 3 3 2 1 1 2 0.534
2068 136 2 204 3 0 3 0 1 3 1.075
2069 135 2 214 2 2 0 1 1 0 0.307
2070 136 2 205 1 1 1 1 0 3 0.952
2071 135 2 215 0 0 1 1 1 1 0.216
2072 136 2 206 2 2 3 1 0 0 0.996
2073 135 2 216 2 2 2 1 1 2 0.865
2074 136 2 207 2 0 2 0 1 2 0.847
2075 135 2 217 0 1 2 0 0 1 0.994
2076 136 2 208 0 1 2 0 1 2 0.492
2077 135 2 218 0 0 1 1 1 1 0.338
2078 136 2 209 1 2 3 0 1 3 0.686
2079 135 2 219 1 1 2 1 0 0 0.95
2080 136 2 210 3 3 1 1 1 1 0.304
2081 135 2 220 1 1 0 1 1 0 0.295
2082 136 2 211 1 0 0 0 1 0 0.32
2083 135 2 221 2 2 3 1 1 3 0.397
2084 136 2 212 2 2 1 1 0 3 0.72
2085 135 2 222 0 0 2 1 1 2 0.527
2086 136 2 213 3 3 2 1 1 2 0.812
2087 135 2 223 1 1 0 1 1 0 0.301
2088 136 2 214 1 1 2 1 1 2 0.339
2089 135 2 224 1 1 3 1 1 3 0.45
2090 136 2 215 1 1 3 1 1 3 0.689
2091 135 2 225 0 0 2 1 1 2 0.369
2092 136 2 216 1 1 1 1 1 1 0.204
2093 135 2 226 2 2 2 1 1 2 0.452
2094 136 2 217 3 3 3 1 1 3 0.207
2095 135 2 227 0 0 2 1 1 2 0.372
2096 136 2 218 3 0 3 0 1 3 0.539
2097 135 2 228 2 2 2 1 1 2 0.71
2098 136 2 219 3 3 2 1 1 2 0.211
2099 135 2 229 2 3 0 0 1 0 0.605
2100 136 2 220 1 1 2 1 0 3 0.679
2101 135 2 230 0 1 3 0 0 2 0.584
2102 136 2 221 1 0 2 0 1 2 1.165
2103 135 2 231 3 3 3 1 1 3 0.742
2104 136 2 222 3 3 3 1 1 3 0.15
2105 135 2 232 0 0 1 1 1 1 0.316
2106 136 2 223 1 1 3 1 1 3 0.164
2107 135 2 233 1 2 0 0 1 0 0.928
2108 136 2 224 1 1 3 1 1 3 0.826
2109 136 2 225 3 3 1 1 1 1 0.311
2110 135 2 234 1 2 0 0 1 0 0.863
2111 136 2 226 1 1 3 1 1 3 0.591
2112 135 2 235 1 1 2 1 1 2 0.433
2113 136 2 227 3 3 0 1 1 0 0.482
2114 135 2 236 1 2 1 0 1 1 0.722
2115 136 2 228 0 1 0 0 1 0 0.524
2116 135 2 237 1 1 2 1 1 2 0.36
2117 135 2 238 0 0 0 1 1 0 0.139
2118 136 2 229 0 0 2 1 0 1 2.045
2119 136 2 230 3 3 1 1 1 1 0.194
2120 135 2 239 3 0 2 0 1 2 1.926
2121 136 2 231 0 1 2 0 1 2 0.494
2122 135 3 240 0 0 3 1 1 3 0.388
2123 136 2 232 2 2 1 1 0 3 0.935
2124 135 3 241 3 3 0 1 1 0 0.278
2125 136 2 233 3 0 0 0 0 3 0.781
2126 135 3 242 1 1 1 1 1 1 0.3
2127 136 2 234 3 3 3 1 1 3 0.351
2128 135 3 243 2 3 2 0 0 3 0.674
2129 136 2 235 3 2 2 0 1 2 0.814
2130 135 3 244 2 2 3 1 1 3 0.238
2131 136 2 236 2 2 0 1 1 0 0.3
2132 135 3 245 1 1 3 1 1 3 0.245
2133 136 2 237 2 2 0 1 1 0 0.188
2134 135 3 246 1 0 3 0 1 3 0.7
2135 136 2 238 1 1 3 1 1 3 0.216
2136 135 3 247 3 1 0 0 1 0 0.595
2137 136 2 239 1 1 0 1 1 0 0.339
2138 135 3 248 3 0 2 0 1 2 0.862
2139 135 3 249 0 0 2 1 1 2 0.239
2140 135 3 250 3 3 1 1 1 1 0.455
2141 135 3 251 0 0 1 1 1 1 0.454
2142 135 3 252 1 0 1 0 0 0 0.902
2143 136 3 240 1 1 2 1 0 3 0.775
2144 136 3 241 2 3 0 0 0 3 0.626
2145 135 3 253 1 0 0 0 0 2 1.033
2146 136 3 242 3 3 2 1 1 2 0.402
2147 135 3 254 0 0 0 1 1 0 0.584
2148 136 3 243 1 1 0 1 1 0 0.199
2149 135 3 255 0 0 0 1 1 0 0.147
2150 136 3 244 3 1 1 0 0 3 0.721
2151 135 3 256 1 1 2 1 1 2 0.526
2152 135 3 257 2 1 1 0 0 2 0.332
2153 136 3 245 0 2 1 0 1 1 1.294
2154 136 3 246 2 2 3 1 1 3 0.099
2155 135 3 258 1 2 3 0 0 1 1.124
2156 136 3 247 3 3 2 1 1 2 0.146
2157 135 3 259 3 3 3 1 1 3 0.527
2158 136 3 248 3 3 3 1 1 3 0.48
2159 135 3 260 1 1 1 1 1 1 0.429
2160 136 3 249 3 0 2 0 1 2 0.858
2161 135 3 261 3 3 3 1 1 3 0.253
2162 135 3 262 2 2 1 1 1 1 0.388
2163 136 3 250 0 0 1 1 0 2 0.894
2164 135 3 263 3 3 0 1 1 0 0.294
2165 136 3 251 2 1 2 0 0 1 1.245
2166 135 3 264 3 1 1 0 1 1 0.588
2167 136 3 252 0 0 0 1 1 0 0.391
2168 135 3 265 3 3 2 1 1 2 0.343
2169 136 3 253 1 1 2 1 1 2 0.228
2170 135 3 266 0 1 2 0 1 2 0.699
2171 136 3 254 3 2 0 0 0 2 0.888
2172 135 3 267 0 0 1 1 1 1 0.498
2173 136 3 255 3 0 0 0 0 2 0.566
2174 136 3 256 1 1 0 1 1 0 0.185
2175 135 3 268 0 1 0 0 0 2 1.009
2176 136 3 257 1 2 3 0 0 0 0.501
2177 135 3 269 1 2 2 0 0 1 0.929
2178 136 3 258 0 0 1 1 1 1 0.29
2179 135 3 270 2 2 3 1 1 3 0.483
2180 136 3 259 3 3 1 1 0 2 0.242
2181 135 3 271 2 2 1 1 1 1 0.306
2182 136 3 260 1 1 2 1 1 2 0.336
2183 135 3 272 2 2 2 1 1 2 0.407
2184 136 3 261 0 0 0 1 0 2 0.487
2185 135 3 273 3 2 3 0 0 1 0.681
2186 136 3 262 2 2 3 1 1 3 0.236
2187 135 3 274 2 2 1 1 1 1 0.325
2188 136 3 263 1 1 1 1 1 1 0.18
2189 136 3 264 1 1 2 1 1 2 0.215
2190 135 3 275 0 0 2 1 1 2 0.937
2191 136 3 265 0 0 1 1 0 2 0.659
2192 135 3 276 3 3 0 1 1 0 0.504
2193 136 3 266 3 3 3 1 1 3 0.144
2194 135 3 277 3 1 0 0 1 0 0.613
2195 136 3 267 1 2 0 0 0 1 1.102
2196 135 3 278 0 1 0 0 1 0 0.384
2197 135 3 279 2 2 2 1 1 2 0.53
2198 136 3 268 0 0 1 1 0 2 0.853
2199 135 3 280 1 0 0 0 1 0 0.543
2200 136 3 269 1 2 0 0 0 3 0.845
2201 136 3 270 1 1 1 1 0 3 0.502
2202 135 3 281 2 3 1 0 0 3 0.78
2203 136 3 271 1 1 0 1 1 0 0.218
2204 135 3 282 3 3 1 1 1 1 0.356
2205 135 3 283 0 0 3 1 1 3 0.535
2206 136 3 272 2 0 3 0 1 3 1.085
2207 135 3 284 3 0 1 0 1 1 0.372
2208 136 3 273 2 2 0 1 1 0 0.36
2209 136 3 274 0 0 1 1 1 1 0.398
2210 135 3 285 3 3 2 1 1 2 0.359
2211 136 3 275 0 0 3 1 1 3 0.227
2212 135 3 286 1 1 3 1 1 3 0.409
2213 135 3 287 0 1 1 0 1 1 0.459
2214 136 3 276 0 0 0 1 0 3 1.35
2215 135 3 288 0 0 3 1 1 3 0.331
2216 136 3 277 0 0 0 1 1 0 0.212
2217 136 3 278 0 0 2 1 1 2 0.36
2218 135 3 289 3 3 1 1 1 1 0.591
2219 135 3 290 3 3 0 1 1 0 0.378
2220 136 3 279 2 0 1 0 0 2 1.862
2221 135 3 291 1 2 0 0 0 1 0.621
2222 136 3 280 2 2 3 1 1 3 0.418
2223 135 3 292 0 0 0 1 1 0 0.186
2224 136 3 281 2 0 3 0 1 3 0.846
2225 135 3 293 0 0 0 1 1 0 0.035
2226 136 3 282 1 1 3 1 1 3 0.419
2227 135 3 294 3 3 0 1 1 0 0.226
2228 135 3 295 1 1 0 1 1 0 0.291
2229 136 3 283 1 2 0 0 0 3 1.388
2230 135 3 296 2 2 3 1 1 3 0.425
2231 136 3 284 3 3 0 1 0 3 1.113
2232 135 3 297 1 0 3 0 1 3 0.698
2233 136 3 285 3 3 0 1 0 3 0.88
2234 135 3 298 2 3 0 0 1 0 0.465
2235 136 3 286 0 0 1 1 1 1 0.343
2236 135 3 299 0 1 2 0 1 2 0.657
2237 136 3 287 1 1 0 1 1 0 0.318
2238 135 3 300 0 0 0 1 1 0 0.169
2239 136 3 288 1 0 1 0 1 1 0.893
2240 135 3 301 2 2 0 1 1 0 0.339
2241 136 3 289 2 1 0 0 0 2 0.737
2242 135 3 302 2 2 3 1 1 3 0.407
2243 136 3 290 0 0 0 1 1 0 0.333
2244 135 3 303 2 3 3 0 1 3 0.441
2245 136 3 291 0 0 1 1 1 1 0.188
2246 136 3 292 3 3 3 1 1 3 0.553
2247 135 3 304 1 1 3 1 1 3 2.137
2248 136 3 293 1 1 0 1 1 0 0.4
2249 135 3 305 2 2 1 1 1 1 0.444
2250 136 3 294 1 1 0 1 1 0 0.237
2251 135 3 306 0 2 2 0 0 1 1.692
2252 136 3 295 3 3 3 1 0 2 0.503
2253 135 3 307 0 1 2 0 0 3 0.868
2254 136 3 296 3 3 3 1 1 3 0.404
2255 135 3 308 1 2 3 0 0 1 0.537
2256 136 3 297 1 1 1 1 0 3 0.672
2257 135 3 309 3 3 0 1 1 0 0.329
2258 136 3 298 2 2 0 1 0 2 0.559
2259 136 3 299 0 0 3 1 1 3 0.577
2260 135 3 310 0 2 1 0 0 0 0.797
2261 136 3 300 1 1 2 1 1 2 0.16
2262 135 3 311 0 1 0 0 0 1 0.597
2263 135 3 312 3 3 1 1 1 1 0.227
2264 136 3 301 2 2 0 1 0 2 1.213
2265 135 3 313 1 1 1 1 1 1 0.283
2266 136 3 302 3 3 3 1 1 3 0.176
2267 135 3 314 1 1 2 1 1 2 0.337
2268 136 3 303 3 3 2 1 1 2 0.748
2269 135 3 315 0 2 3 0 0 0 0.885
2270 136 3 304 2 1 3 0 1 3 0.66
2271 136 3 305 2 2 3 1 1 3 0.256
2272 135 3 316 0 2 1 0 1 1 0.841
2273 135 3 317 1 1 1 1 1 1 0.363
2274 136 3 306 2 2 0 1 1 0 1.258
2275 135 3 318 3 3 1 1 1 1 0.222
2276 136 3 307 3 3 3 1 1 3 0.304
2277 135 3 319 2 3 3 0 1 3 0.774
2278 136 3 308 0 1 2 0 0 3 1.144
2279 136 3 309 1 1 1 1 1 1 0.222
2280 136 3 310 2 3 1 0 0 3 0.785
2281 136 3 311 1 1 2 1 1 2 0.155
2282 136 3 312 2 2 3 1 0 2 1.449
2283 136 3 313 1 0 1 0 1 1 0.363
2284 136 3 314 2 2 1 1 1 1 0.353
2285 136 3 315 3 1 0 0 1 0 0.863
2286 136 3 316 2 2 1 1 1 1 0.66
2287 136 3 317 3 3 3 1 1 3 0.247
2288 136 3 318 1 1 1 1 0 3 0.842
2289 136 3 319 2 1 0 0 0 2 1.61
