datID sessionID block trial WordInt ColorInt TrueInt Cong Correct Response rt
1 201 0 0 2 2 3 1 1 3 1.214
2 201 0 1 3 3 2 2 0 1 1.293
3 201 0 2 2 3 0 0 0 2 1.304
4 201 0 3 1 1 1 2 0 3 1.522
5 201 0 4 2 1 0 0 1 0 0.861
6 201 0 5 2 0 3 0 0 1 0.877
7 201 0 6 2 2 3 1 1 3 0.88
8 201 0 7 3 3 1 1 1 1 2.255
9 201 0 8 2 2 0 2 1 0 0.755
10 201 0 9 0 1 3 0 1 3 1.263
11 201 0 10 3 3 0 1 1 0 0.841
12 201 0 11 2 2 0 2 1 0 0.719
13 201 0 12 2 2 0 2 1 0 0.362
14 201 0 13 2 2 0 2 1 0 0.218
15 201 0 14 2 2 3 2 0 0 0.214
16 201 0 15 1 1 2 2 0 3 1.645
17 201 0 16 1 2 3 0 0 2 1.076
18 201 0 17 0 0 1 2 1 1 0.613
19 201 0 18 3 3 2 1 1 2 1.038
20 201 0 19 2 2 2 1 1 2 0.816
21 201 0 20 1 2 3 0 0 1 1.474
22 201 0 21 3 3 1 1 0 0 1.879
23 201 0 22 3 3 3 1 1 3 0.701
24 201 0 23 1 1 1 2 0 2 2.216
25 201 0 24 0 1 0 0 0 3 1.515
26 201 0 25 0 0 1 1 1 1 0.79
27 201 0 26 2 2 1 2 1 1 0.934
28 201 0 27 2 2 2 1 1 2 0.811
29 201 0 28 3 1 3 0 1 3 1.132
30 201 0 29 3 3 2 2 1 2 0.896
31 201 0 30 2 2 0 2 1 0 0.693
32 201 0 31 2 2 2 1 1 2 0.674
33 201 0 32 0 0 2 1 1 2 0.801
34 201 0 33 1 1 2 2 1 2 0.785
35 201 0 34 0 1 3 0 0 2 1.884
36 201 0 35 3 2 3 0 0 1 1.65
37 201 0 36 2 2 2 2 1 2 0.671
38 201 0 37 3 3 1 2 0 0 2.276
39 201 0 38 3 3 1 2 1 1 2.002
40 201 0 39 1 2 0 0 0 1 1.665
41 201 0 40 2 2 0 2 1 0 0.637
42 201 0 41 1 1 2 2 1 2 1.938
43 201 0 42 1 1 2 2 1 2 0.785
44 201 0 43 0 0 1 2 1 1 0.402
45 201 0 44 2 2 1 1 1 1 0.826
46 201 0 45 0 0 3 2 1 3 0.754
47 201 0 46 3 0 1 0 1 1 3.013
48 201 0 47 2 1 2 0 1 2 0.816
49 201 0 48 1 1 2 2 1 2 0.695
50 201 0 49 0 0 3 2 1 3 0.947
51 201 0 50 0 0 3 2 1 3 0.566
52 201 0 51 3 2 3 0 0 2 1.617
53 201 0 52 0 0 1 2 1 1 1.142
54 201 0 53 3 3 0 1 0 1 0.948
55 201 0 54 2 3 2 0 0 1 1.356
56 201 0 55 0 0 2 1 1 2 2.854
57 201 0 56 3 1 2 0 1 2 0.91
58 201 0 57 0 0 2 1 1 2 0.365
59 201 0 58 2 2 3 2 1 3 1.156
60 201 0 59 1 1 2 1 1 2 0.482
61 201 0 60 2 2 0 1 0 2 1.839
62 201 0 61 1 2 2 0 1 2 0.488
63 201 0 62 1 1 2 2 0 3 1.411
64 201 0 63 2 2 0 2 1 0 0.416
65 201 0 64 1 2 2 0 1 2 0.824
66 201 0 65 3 2 1 0 1 1 0.696
67 201 0 66 1 1 2 2 0 0 2.18
68 201 0 67 3 3 2 2 0 1 1.302
69 201 0 68 2 2 2 2 1 2 0.839
70 201 0 69 3 1 3 0 0 1 1.183
71 201 0 70 3 3 1 2 1 1 0.973
72 201 0 71 2 2 1 1 1 1 0.617
73 201 0 72 2 2 0 2 1 0 0.64
74 201 0 73 1 1 2 2 1 2 0.854
75 201 0 74 3 3 0 2 0 1 1.371
76 201 0 75 3 3 2 1 1 2 0.701
77 201 0 76 3 3 2 1 1 2 0.618
78 201 0 77 1 1 1 1 1 1 0.722
79 201 0 78 0 0 0 2 1 0 0.645
80 201 0 79 2 2 2 2 1 2 0.771
81 201 1 80 1 1 1 2 0 2 1.763
82 201 1 81 0 1 0 0 1 0 1.158
83 201 1 82 3 3 1 1 1 1 0.435
84 201 1 83 2 2 0 2 0 2 1.256
85 201 1 84 1 1 2 1 1 2 0.917
86 201 1 85 1 1 0 1 1 0 0.699
87 201 1 86 0 0 3 1 1 3 0.649
88 201 1 87 3 3 0 1 1 0 0.696
89 201 1 88 2 2 0 1 1 0 0.79
90 201 1 89 1 0 0 0 1 0 0.681
91 201 1 90 3 3 3 1 1 3 0.756
92 201 1 91 0 0 0 1 1 0 0.488
93 201 1 92 0 2 3 0 1 3 0.645
94 201 1 93 3 3 3 1 1 3 0.821
95 201 1 94 3 3 0 2 1 0 0.548
96 201 1 95 1 1 1 2 1 1 0.773
97 201 1 96 3 3 3 1 1 3 0.688
98 201 1 97 3 1 0 0 1 0 0.758
99 201 1 98 0 0 3 1 1 3 1.138
100 201 1 99 0 1 2 0 1 2 1.071
101 201 1 100 1 0 2 0 0 1 1.255
102 201 1 101 2 2 2 1 1 2 0.819
103 201 1 102 1 1 2 1 1 2 0.677
104 201 1 103 3 2 2 0 0 1 1.795
105 201 1 104 1 1 0 1 0 1 1.429
106 201 1 105 2 2 0 1 1 0 0.668
107 201 1 106 0 0 3 1 1 3 1.099
108 201 1 107 3 3 2 2 1 2 0.984
109 201 1 108 0 0 3 2 1 3 0.778
110 201 1 109 2 2 1 1 1 1 0.789
111 201 1 110 1 0 0 0 1 0 0.919
112 201 1 111 0 0 0 1 1 0 0.213
113 201 1 112 2 2 2 2 1 2 0.778
114 201 1 113 2 2 0 2 1 0 0.839
115 201 1 114 0 0 1 1 1 1 0.744
116 201 1 115 2 2 3 2 1 3 0.786
117 201 1 116 3 3 0 1 1 0 0.38
118 201 1 117 1 1 0 1 1 0 0.405
119 201 1 118 0 1 2 0 0 1 1.125
120 201 1 119 0 0 1 1 1 1 0.511
121 201 1 120 0 1 2 0 0 3 1.379
122 201 1 121 2 2 1 2 0 2 1.106
123 201 1 122 1 1 2 2 1 2 0.89
124 201 1 123 1 1 1 1 1 1 1.241
125 201 1 124 2 2 0 1 0 1 3.291
126 201 1 125 3 0 3 0 1 3 0.815
127 201 1 126 3 3 3 2 0 2 2.15
128 201 1 127 2 0 3 0 0 1 0.851
129 201 1 128 2 2 0 1 1 0 0.335
130 201 1 129 3 0 2 0 0 3 2.05
131 201 1 130 1 0 2 0 1 2 1.578
132 201 1 131 3 3 2 1 1 2 2.76
133 201 1 132 2 2 1 2 1 1 1.458
134 201 1 133 2 3 1 0 0 2 1.508
135 201 1 134 0 0 3 2 1 3 0.695
136 201 1 135 0 2 3 0 0 1 2.205
137 201 1 136 2 3 3 0 0 2 1.776
138 201 1 137 2 2 0 1 1 0 1.747
139 201 1 138 0 0 2 1 1 2 0.819
140 201 1 139 2 1 0 0 1 0 0.821
141 202 0 0 2 2 0 1 1 0 0.614
142 201 1 140 1 1 1 1 1 1 0.622
143 202 0 1 3 3 3 1 1 3 0.647
144 201 1 141 2 3 2 0 1 2 0.886
145 202 0 2 2 2 0 1 0 1 0.775
146 201 1 142 1 1 3 2 0 1 1.443
147 202 0 3 2 3 2 0 0 0 1.654
148 201 1 143 2 2 1 2 1 1 0.912
149 202 0 4 2 2 0 1 1 0 0.486
150 201 1 144 2 2 2 1 1 2 1.278
151 202 0 5 3 3 1 2 1 1 0.658
152 201 1 145 3 3 3 2 1 3 0.765
153 202 0 6 2 2 3 1 1 3 0.641
154 201 1 146 3 3 2 1 1 2 0.657
155 202 0 7 2 1 0 0 0 1 1.09
156 201 1 147 1 2 0 0 1 0 0.784
157 202 0 8 3 3 1 1 1 1 0.469
158 201 1 148 1 1 3 2 1 3 1.057
159 202 0 9 3 3 3 1 1 3 0.539
160 202 0 10 2 2 0 2 1 0 0.613
161 201 1 149 0 2 1 0 1 1 1.937
162 201 1 150 2 2 3 2 1 3 1.12
163 202 0 11 2 1 0 0 0 2 2.742
164 201 1 151 2 0 3 0 1 3 0.742
165 202 0 12 1 1 1 2 0 3 0.932
166 201 1 152 3 3 1 1 1 1 0.786
167 202 0 13 2 2 0 1 1 0 0.51
168 201 1 153 3 3 1 1 1 1 0.362
169 202 0 14 0 0 1 2 0 2 0.747
170 202 0 15 3 3 1 1 1 1 0.523
171 201 1 154 0 0 1 2 0 3 0.922
172 201 1 155 3 1 3 0 1 3 1.315
173 202 0 16 3 0 1 0 2 -1 2.016
174 201 1 156 0 0 1 2 1 1 1.049
175 202 0 17 1 1 1 1 0 3 0.697
176 201 1 157 2 3 1 0 0 2 1.53
177 202 0 18 0 1 3 0 0 0 2.027
178 201 1 158 0 1 0 0 0 3 1.262
179 202 0 19 0 1 1 0 0 0 1.501
180 201 1 159 2 2 0 1 1 0 0.802
181 202 0 20 3 3 3 2 1 3 0.888
182 202 0 21 2 2 2 1 1 2 0.927
183 202 0 22 0 0 2 2 1 2 0.747
184 202 0 23 2 2 3 2 0 1 0.334
185 202 0 24 3 3 2 1 1 2 0.541
186 202 0 25 1 1 1 2 0 3 1.015
187 201 2 160 1 1 3 2 1 3 0.916
188 202 0 26 0 0 1 2 1 1 0.483
189 201 2 161 2 2 2 2 1 2 0.784
190 202 0 27 3 3 2 1 0 3 0.793
191 201 2 162 1 2 3 0 0 2 1.594
192 202 0 28 1 2 3 0 0 2 0.823
193 201 2 163 1 1 2 2 1 2 0.754
194 202 0 29 3 3 2 2 1 2 0.731
195 201 2 164 3 3 1 1 1 1 0.749
196 202 0 30 3 3 1 2 1 1 0.606
197 201 2 165 3 1 3 0 1 3 0.849
198 202 0 31 2 2 3 1 1 3 0.463
199 201 2 166 0 0 0 1 1 0 0.641
200 202 0 32 2 0 3 0 1 3 1.654
201 201 2 167 3 3 2 2 1 2 0.895
202 202 0 33 0 1 1 0 0 3 1.154
203 201 2 168 0 0 3 1 1 3 0.758
204 202 0 34 2 2 0 1 1 0 0.468
205 201 2 169 3 0 0 0 0 1 0.969
206 202 0 35 1 1 1 1 1 1 0.778
207 202 0 36 0 0 3 1 1 3 0.662
208 201 2 170 1 1 0 2 0 2 2.071
209 202 0 37 3 3 0 1 1 0 0.485
210 201 2 171 0 0 1 2 1 1 0.621
211 202 0 38 3 3 3 1 1 3 0.443
212 201 2 172 0 0 1 2 1 1 0.994
213 202 0 39 3 3 2 2 1 2 0.504
214 202 0 40 3 3 0 1 1 0 0.461
215 201 2 173 1 0 0 0 0 1 2.605
216 201 2 174 1 1 1 2 1 1 0.84
217 202 0 41 1 2 0 0 0 3 1.38
218 201 2 175 3 3 3 2 1 3 0.822
219 202 0 42 2 3 2 0 0 3 1.581
220 201 2 176 3 2 3 0 1 3 0.911
221 202 0 43 2 2 2 2 1 2 0.71
222 201 2 177 1 1 0 1 1 0 1.054
223 202 0 44 3 3 0 1 1 0 0.484
224 201 2 178 3 3 0 1 1 0 0.55
225 202 0 45 1 1 0 1 0 2 1.338
226 201 2 179 1 1 2 2 1 2 0.839
227 202 0 46 3 0 0 0 0 3 1.221
228 201 2 180 3 3 3 1 1 3 0.688
229 202 0 47 3 3 0 2 1 0 0.858
230 201 2 181 3 3 1 2 1 1 0.644
231 202 0 48 0 0 1 1 1 1 1.154
232 201 2 182 2 2 0 2 1 0 0.609
233 202 0 49 1 1 1 2 1 1 0.406
234 201 2 183 3 1 1 0 1 1 0.754
235 202 0 50 0 0 0 1 1 0 0.447
236 201 2 184 2 2 3 2 1 3 0.708
237 202 0 51 0 2 3 0 0 0 1.27
238 201 2 185 0 0 0 1 1 0 0.569
239 202 0 52 0 2 0 0 0 3 1.059
240 201 2 186 1 0 3 0 0 1 0.803
241 202 0 53 0 0 3 2 1 3 0.414
242 201 2 187 2 0 2 0 1 2 0.984
243 202 0 54 0 0 2 2 1 2 0.605
244 201 2 188 0 2 2 0 1 2 0.892
245 202 0 55 3 0 0 0 1 0 2.414
246 201 2 189 2 2 0 2 1 0 1.128
247 202 0 56 3 3 1 2 1 1 0.661
248 201 2 190 3 0 1 0 1 1 0.63
249 202 0 57 1 1 2 2 1 2 1.003
250 201 2 191 1 0 1 0 1 1 0.975
251 202 0 58 2 2 0 1 1 0 0.382
252 201 2 192 0 0 3 2 1 3 0.736
253 202 0 59 3 3 2 2 1 2 0.462
254 201 2 193 3 3 0 1 1 0 0.629
255 202 0 60 3 3 0 2 1 0 0.555
256 201 2 194 1 2 3 0 1 3 1.317
257 202 0 61 3 3 0 2 1 0 0.436
258 202 0 62 3 3 0 1 1 0 0.315
259 201 2 195 3 3 0 2 0 1 0.986
260 202 0 63 0 2 3 0 0 2 0.695
261 201 2 196 0 2 0 0 0 2 0.961
262 202 0 64 1 1 2 1 0 1 1.001
263 201 2 197 1 1 3 1 1 3 1.193
264 202 0 65 0 0 0 2 1 0 0.422
265 201 2 198 2 2 2 2 1 2 0.731
266 202 0 66 3 3 2 1 1 2 0.454
267 201 2 199 3 1 2 0 0 1 0.704
268 202 0 67 0 0 3 1 1 3 0.573
269 201 2 200 0 0 0 2 1 0 1.431
270 202 0 68 2 2 3 2 0 2 0.805
271 201 2 201 2 2 1 1 1 1 0.586
272 202 0 69 3 1 0 0 0 2 0.627
273 201 2 202 2 0 1 0 1 1 1.089
274 202 0 70 0 0 2 1 1 2 0.536
275 201 2 203 2 3 3 0 0 2 0.657
276 202 0 71 0 0 1 2 1 1 0.37
277 202 0 72 2 2 1 2 1 1 0.945
278 201 2 204 3 3 2 2 1 2 1.729
279 201 2 205 3 3 1 1 1 1 0.506
280 202 0 73 1 1 3 1 0 2 1.255
281 202 0 74 2 2 2 1 0 0 0.693
282 201 2 206 3 3 2 1 1 2 1.35
283 202 0 75 2 2 0 1 1 0 0.295
284 201 2 207 2 2 1 1 0 2 1.397
285 202 0 76 2 2 2 2 1 2 0.506
286 201 2 208 1 1 1 1 1 1 1.052
287 202 0 77 0 1 0 0 0 1 0.735
288 202 0 78 2 2 1 1 1 1 0.559
289 201 2 209 3 3 0 1 1 0 1.261
290 202 0 79 1 1 2 1 1 2 0.499
291 201 2 210 0 0 0 2 1 0 0.781
292 201 2 211 2 2 1 2 1 1 0.686
293 202 1 80 1 1 0 1 0 2 0.662
294 201 2 212 2 2 0 1 1 0 0.764
295 202 1 81 3 0 3 0 0 0 0.809
296 201 2 213 1 1 3 2 1 3 1.237
297 202 1 82 1 2 0 0 0 2 0.631
298 201 2 214 3 3 3 2 1 3 0.861
299 202 1 83 3 2 0 0 0 1 0.715
300 201 2 215 1 1 1 2 1 1 0.811
301 202 1 84 2 3 0 0 1 0 0.556
302 202 1 85 0 0 3 2 1 3 0.47
303 201 2 216 2 2 0 2 0 2 3.707
304 202 1 86 0 1 1 0 0 0 1.66
305 201 2 217 3 0 0 0 0 1 1.672
306 202 1 87 1 2 1 0 0 0 1.372
307 201 2 218 2 2 1 1 1 1 0.687
308 202 1 88 0 1 2 0 0 3 1.622
309 202 1 89 0 0 2 2 1 2 0.828
310 201 2 219 1 0 3 0 0 2 2.517
311 201 2 220 1 2 3 0 1 3 0.989
312 202 1 90 2 3 3 0 0 1 3.046
313 201 2 221 0 0 0 2 1 0 1.158
314 202 1 91 0 0 2 1 0 0 1.86
315 201 2 222 1 1 0 2 0 1 1.001
316 202 1 92 2 2 0 1 1 0 0.413
317 202 1 93 3 3 2 2 0 1 1.563
318 201 2 223 0 1 3 0 1 3 3.607
319 202 1 94 2 2 0 2 1 0 0.724
320 201 2 224 0 0 2 2 0 0 0.923
321 202 1 95 0 1 3 0 0 0 0.37
322 202 1 96 3 0 0 0 1 0 0.527
323 201 2 225 0 0 2 1 1 2 3.308
324 202 1 97 0 1 1 0 0 0 0.547
325 201 2 226 3 3 1 1 1 1 0.956
326 202 1 98 3 2 2 0 0 0 0.507
327 201 2 227 3 3 3 2 1 3 0.998
328 202 1 99 3 3 0 2 1 0 0.346
329 201 2 228 3 3 3 2 1 3 0.671
330 202 1 100 1 0 2 0 0 3 2.948
331 201 2 229 1 1 1 1 1 1 0.766
332 202 1 101 3 3 0 1 1 0 0.326
333 201 2 230 0 0 2 2 1 2 0.759
334 202 1 102 1 1 3 2 0 0 0.775
335 201 2 231 3 3 3 2 1 3 0.625
336 202 1 103 0 0 1 2 0 2 0.7
337 201 2 232 2 2 2 2 1 2 0.743
338 202 1 104 3 3 2 1 1 2 0.543
339 201 2 233 0 0 2 1 1 2 0.651
340 202 1 105 3 3 2 2 1 2 0.248
341 202 1 106 0 1 1 0 0 2 0.615
342 201 2 234 3 3 2 2 0 1 2.377
343 202 1 107 2 2 3 1 1 3 0.668
344 201 2 235 3 3 1 1 1 1 0.527
345 202 1 108 1 1 3 1 0 2 0.795
346 201 2 236 1 0 3 0 0 2 1.138
347 201 2 237 2 1 3 0 0 0 0.932
348 202 1 109 1 2 2 0 0 3 1.722
349 202 1 110 3 3 0 2 0 2 0.637
350 201 2 238 0 0 1 1 1 1 0.805
351 202 1 111 1 1 1 1 0 2 0.785
352 201 2 239 0 0 2 2 1 2 0.949
353 202 1 112 3 3 3 2 1 3 0.614
354 201 3 240 3 3 0 1 1 0 0.679
355 202 1 113 2 3 0 0 1 0 0.615
356 201 3 241 0 0 0 1 1 0 0.781
357 202 1 114 0 0 2 1 1 2 0.617
358 201 3 242 2 2 0 1 1 0 0.896
359 202 1 115 0 1 2 0 1 2 0.522
360 201 3 243 2 2 0 1 1 0 0.607
361 202 1 116 2 2 0 2 1 0 0.741
362 202 1 117 3 3 2 2 1 2 0.535
363 201 3 244 2 2 3 2 1 3 1.158
364 202 1 118 3 1 2 0 1 2 0.635
365 201 3 245 0 0 1 1 0 2 0.955
366 202 1 119 2 2 1 1 1 1 0.541
367 201 3 246 2 0 0 0 1 0 1.561
368 202 1 120 3 3 1 1 1 1 0.433
369 201 3 247 2 3 3 0 0 1 1.064
370 202 1 121 2 2 1 2 1 1 0.847
371 201 3 248 0 0 2 2 1 2 1.122
372 202 1 122 1 1 0 1 1 0 0.824
373 202 1 123 1 1 2 2 1 2 0.456
374 202 1 124 3 2 1 0 0 0 0.75
375 201 3 249 2 2 1 1 1 1 5.16
376 202 1 125 3 1 0 0 1 0 0.942
377 201 3 250 2 2 2 2 1 2 0.684
378 202 1 126 1 0 0 0 0 2 0.739
379 201 3 251 1 2 3 0 0 2 1.058
380 202 1 127 1 1 0 1 1 0 0.356
381 201 3 252 1 1 0 1 1 0 0.678
382 202 1 128 2 3 0 0 1 0 0.733
383 201 3 253 1 1 1 2 1 1 0.627
384 202 1 129 3 2 0 0 1 0 0.57
385 201 3 254 2 2 3 2 1 3 0.737
386 202 1 130 1 1 1 1 0 2 0.844
387 201 3 255 0 1 3 0 1 3 0.725
388 202 1 131 1 2 1 0 0 0 0.633
389 201 3 256 0 0 1 1 1 1 0.778
390 202 1 132 3 3 1 1 1 1 0.477
391 201 3 257 1 1 3 1 1 3 0.693
392 202 1 133 3 3 1 1 1 1 0.34
393 201 3 258 3 2 2 0 0 1 0.835
394 202 1 134 1 1 1 2 1 1 0.755
395 201 3 259 1 0 3 0 0 2 1.111
396 202 1 135 1 1 3 2 1 3 0.885
397 202 1 136 0 2 1 0 0 0 0.589
398 201 3 260 2 2 2 2 1 2 0.863
399 202 1 137 0 0 1 2 1 1 0.537
400 201 3 261 1 1 1 1 1 1 0.703
401 202 1 138 0 0 2 2 1 2 0.595
402 201 3 262 2 0 3 0 1 3 1.469
403 202 1 139 0 1 2 0 1 2 1.237
404 201 3 263 1 2 3 0 1 3 0.879
405 202 1 140 0 0 0 1 1 0 0.528
406 201 3 264 3 2 0 0 0 3 1.11
407 202 1 141 3 0 1 0 0 2 0.709
408 201 3 265 0 0 2 2 0 3 0.847
409 202 1 142 3 3 0 1 1 0 0.374
410 201 3 266 3 3 3 1 1 3 0.538
411 202 1 143 2 2 1 2 1 1 0.566
412 202 1 144 3 3 1 2 1 1 0.463
413 201 3 267 2 2 2 2 0 1 1.227
414 202 1 145 0 1 2 0 0 1 0.662
415 201 3 268 3 3 1 1 1 1 0.658
416 202 1 146 0 1 3 0 0 1 0.521
417 201 3 269 0 0 3 2 1 3 0.679
418 201 3 270 1 2 3 0 1 3 1.054
419 202 1 147 3 3 3 1 0 2 2.529
420 201 3 271 2 2 1 1 1 1 0.63
421 202 1 148 2 2 2 1 1 2 0.609
422 201 3 272 3 0 3 0 1 3 0.663
423 202 1 149 0 0 2 2 1 2 0.729
424 201 3 273 2 3 3 0 0 2 0.918
425 202 1 150 2 2 2 2 0 0 0.508
426 201 3 274 1 1 1 1 1 1 0.783
427 202 1 151 3 3 1 2 1 1 0.715
428 202 1 152 3 3 1 2 1 1 0.367
429 201 3 275 1 1 3 2 0 1 1.072
430 202 1 153 0 0 0 2 0 2 0.847
431 201 3 276 2 2 0 1 1 0 0.628
432 202 1 154 3 3 3 2 1 3 0.706
433 201 3 277 1 0 1 0 1 1 2.476
434 202 1 155 2 1 3 0 0 2 0.896
435 201 3 278 2 0 0 0 1 0 0.578
436 202 1 156 3 3 3 1 1 3 0.523
437 201 3 279 3 3 2 2 1 2 0.834
438 202 1 157 0 0 0 2 0 1 0.981
439 202 1 158 0 0 0 1 1 0 0.365
440 201 3 280 1 1 1 1 0 3 2.274
441 202 1 159 1 0 3 0 0 0 0.743
442 201 3 281 3 0 0 0 1 0 0.715
443 201 3 282 0 0 1 1 1 1 0.912
444 202 2 160 1 1 1 1 1 1 0.672
445 201 3 283 0 1 2 0 1 2 0.742
446 202 2 161 1 1 0 1 1 0 0.351
447 201 3 284 1 1 3 2 1 3 0.673
448 202 2 162 2 2 1 2 0 0 0.815
449 201 3 285 2 2 3 1 1 3 0.687
450 202 2 163 3 1 1 0 0 0 0.621
451 201 3 286 0 0 2 2 1 2 0.867
452 202 2 164 0 1 2 0 0 0 0.53
453 202 2 165 3 3 2 2 0 3 0.672
454 201 3 287 0 1 0 0 0 1 1.05
455 202 2 166 2 2 3 1 1 3 0.594
456 201 3 288 0 0 2 1 1 2 0.615
457 202 2 167 1 1 0 2 0 1 0.842
458 201 3 289 1 0 3 0 1 3 0.736
459 201 3 290 1 2 2 0 1 2 0.612
460 202 2 168 3 3 1 2 1 1 1.049
461 202 2 169 3 3 0 2 1 0 0.433
462 201 3 291 0 0 3 1 0 2 0.813
463 202 2 170 1 1 1 2 1 1 0.719
464 202 2 171 1 1 0 1 1 0 0.38
465 201 3 292 2 3 3 0 0 2 3.066
466 202 2 172 3 1 3 0 0 0 0.694
467 201 3 293 3 0 0 0 0 3 0.79
468 202 2 173 2 3 0 0 0 1 0.616
469 201 3 294 3 3 1 1 0 2 0.668
470 202 2 174 3 3 2 1 1 2 0.541
471 201 3 295 1 1 2 1 1 2 0.758
472 202 2 175 2 2 1 1 1 1 0.369
473 201 3 296 2 2 0 2 1 0 0.767
474 202 2 176 2 2 1 1 1 1 0.347
475 201 3 297 2 0 1 0 1 1 1.026
476 202 2 177 3 3 1 2 1 1 0.445
477 201 3 298 1 1 2 2 1 2 0.666
478 202 2 178 2 2 3 1 1 3 0.692
479 201 3 299 0 0 1 2 1 1 1.071
480 202 2 179 3 3 0 1 1 0 0.371
481 202 2 180 3 3 3 1 1 3 0.428
482 201 3 300 2 2 2 1 1 2 0.727
483 202 2 181 2 2 0 1 1 0 0.468
484 201 3 301 2 2 1 1 1 1 0.596
485 202 2 182 3 3 2 1 1 2 0.555
486 201 3 302 0 0 0 2 1 0 0.587
487 202 2 183 0 0 0 1 1 0 0.366
488 201 3 303 2 2 0 2 1 0 0.594
489 202 2 184 0 0 2 2 1 2 0.509
490 201 3 304 2 2 0 2 1 0 0.506
491 202 2 185 1 1 3 1 0 2 0.61
492 202 2 186 3 3 1 1 1 1 0.631
493 201 3 305 1 1 0 1 0 2 3.055
494 202 2 187 3 3 1 1 1 1 0.439
495 201 3 306 0 0 1 2 1 1 0.682
496 202 2 188 0 0 2 1 0 0 0.671
497 201 3 307 3 2 1 0 0 2 0.88
498 202 2 189 1 0 2 0 0 0 0.642
499 201 3 308 3 3 1 1 0 3 0.827
500 202 2 190 3 1 0 0 1 0 0.608
501 201 3 309 2 0 0 0 1 0 0.992
502 202 2 191 2 3 3 0 0 0 0.562
503 201 3 310 0 0 3 2 1 3 0.713
504 202 2 192 1 1 3 2 1 3 0.831
505 201 3 311 3 3 3 1 0 2 0.758
506 202 2 193 2 2 1 2 0 0 0.398
507 201 3 312 1 0 1 0 1 1 0.557
508 202 2 194 3 0 0 0 1 0 0.587
509 201 3 313 1 2 1 0 1 1 1.28
510 202 2 195 2 2 0 2 1 0 0.531
511 201 3 314 3 0 0 0 1 0 0.601
512 202 2 196 1 1 3 1 1 3 0.536
513 202 2 197 1 1 1 1 1 1 0.828
514 201 3 315 1 1 3 2 0 2 1.448
515 202 2 198 0 0 1 2 1 1 0.572
516 201 3 316 0 0 1 2 1 1 0.628
517 202 2 199 3 0 2 0 0 0 0.702
518 201 3 317 0 0 0 1 1 0 0.628
519 202 2 200 0 1 0 0 1 0 0.592
520 201 3 318 1 1 1 2 1 1 0.746
521 202 2 201 0 1 3 0 0 0 0.306
522 201 3 319 1 1 0 2 1 0 0.604
523 202 2 202 2 2 1 1 1 1 0.738
524 202 2 203 3 2 0 0 0 1 0.719
525 202 2 204 3 3 1 2 0 2 0.789
526 202 2 205 2 2 3 2 1 3 0.554
527 202 2 206 2 2 3 2 1 3 0.243
528 201 4 320 0 0 1 2 1 1 0.775
529 202 2 207 3 2 3 0 1 3 0.466
530 201 4 321 2 2 3 1 1 3 0.69
531 202 2 208 0 1 3 0 0 0 0.617
532 201 4 322 1 1 3 2 1 3 0.806
533 202 2 209 0 1 3 0 0 0 0.398
534 201 4 323 0 0 1 2 1 1 0.733
535 202 2 210 3 3 2 2 0 1 1.025
536 201 4 324 2 3 0 0 1 0 0.682
537 202 2 211 3 3 1 2 1 1 0.397
538 201 4 325 1 1 0 1 1 0 0.592
539 202 2 212 3 1 3 0 0 1 0.71
540 202 2 213 2 2 0 2 1 0 0.925
541 201 4 326 1 2 2 0 1 2 1.154
542 202 2 214 2 2 0 1 1 0 0.292
543 201 4 327 1 1 2 1 0 3 0.615
544 202 2 215 0 2 0 0 0 2 0.384
545 201 4 328 2 2 3 1 1 3 1.019
546 202 2 216 0 0 3 1 1 3 0.461
547 201 4 329 2 1 0 0 1 0 0.981
548 202 2 217 0 0 0 2 1 0 0.458
549 201 4 330 3 3 0 2 1 0 0.655
550 202 2 218 2 0 0 0 1 0 0.621
551 201 4 331 3 1 1 0 1 1 0.654
552 202 2 219 0 0 0 2 1 0 0.371
553 201 4 332 1 2 0 0 1 0 0.301
554 202 2 220 2 2 2 2 0 0 0.179
555 201 4 333 3 3 0 1 1 0 0.616
556 202 2 221 3 2 2 0 1 2 0.584
557 201 4 334 0 0 1 2 1 1 0.711
558 202 2 222 2 0 1 0 1 1 1.93
559 201 4 335 0 0 2 2 1 2 0.658
560 202 2 223 1 1 3 2 0 1 0.546
561 201 4 336 0 2 1 0 1 1 0.609
562 202 2 224 1 1 3 1 1 3 0.745
563 201 4 337 3 0 1 0 1 1 0.69
564 202 2 225 2 2 3 1 0 1 0.742
565 201 4 338 0 0 0 1 1 0 0.584
566 202 2 226 1 2 3 0 1 3 0.614
567 201 4 339 2 2 2 2 1 2 0.688
568 202 2 227 2 2 1 2 1 1 0.573
569 201 4 340 2 0 0 0 1 0 0.901
570 202 2 228 2 2 0 2 1 0 0.422
571 202 2 229 1 1 2 1 0 3 0.206
572 201 4 341 3 2 3 0 1 3 1.06
573 202 2 230 2 2 2 2 0 3 0.871
574 201 4 342 0 1 0 0 0 3 0.893
575 202 2 231 0 0 0 1 1 0 0.531
576 201 4 343 2 2 3 2 0 2 0.741
577 202 2 232 3 3 0 2 1 0 0.461
578 201 4 344 0 0 2 1 1 2 0.709
579 202 2 233 3 3 1 1 1 1 0.42
580 201 4 345 0 2 3 0 1 3 0.65
581 202 2 234 3 3 2 2 1 2 0.578
582 201 4 346 0 0 3 1 1 3 0.594
583 202 2 235 0 0 1 2 1 1 0.635
584 201 4 347 1 2 1 0 0 2 0.915
585 202 2 236 1 2 3 0 0 0 0.603
586 201 4 348 1 1 3 1 1 3 0.709
587 202 2 237 2 2 0 2 1 0 0.967
588 201 4 349 0 0 0 2 1 0 0.623
589 202 2 238 0 0 2 2 0 1 0.865
590 202 2 239 3 3 3 2 0 2 0.643
591 201 4 350 3 3 3 1 0 1 1.039
592 201 4 351 1 1 3 2 1 3 0.73
593 202 3 240 0 0 0 1 1 0 0.305
594 201 4 352 3 3 3 2 0 2 0.565
595 202 3 241 2 2 2 1 1 2 0.541
596 201 4 353 2 2 1 1 1 1 0.667
597 202 3 242 1 1 1 1 0 0 0.785
598 201 4 354 3 3 3 1 1 3 0.682
599 202 3 243 0 0 3 1 1 3 0.495
600 201 4 355 3 3 0 2 1 0 0.614
601 202 3 244 3 3 2 1 1 2 0.421
602 201 4 356 3 1 2 0 1 2 0.759
603 202 3 245 1 0 1 0 1 1 0.877
604 201 4 357 1 2 2 0 1 2 0.698
605 202 3 246 2 2 0 2 0 1 0.827
606 201 4 358 1 2 0 0 1 0 0.576
607 202 3 247 3 3 1 2 1 1 0.578
608 201 4 359 3 3 0 2 1 0 0.64
609 202 3 248 2 2 3 2 0 0 1.051
610 201 4 360 0 1 0 0 1 0 0.631
611 202 3 249 3 2 2 0 0 1 0.768
612 201 4 361 2 1 1 0 1 1 0.584
613 202 3 250 0 0 2 2 0 0 0.694
614 201 4 362 0 1 0 0 1 0 0.681
615 202 3 251 1 1 3 2 0 1 0.574
616 201 4 363 2 2 3 1 1 3 0.632
617 202 3 252 2 0 1 0 0 2 0.836
618 201 4 364 2 0 3 0 1 3 0.8
619 202 3 253 1 0 1 0 1 1 0.481
620 201 4 365 3 3 0 1 1 0 0.642
621 202 3 254 3 0 1 0 1 1 0.455
622 201 4 366 2 2 0 1 1 0 0.61
623 202 3 255 3 1 2 0 0 1 1.966
624 201 4 367 1 2 2 0 1 2 0.755
625 201 4 368 1 1 2 1 1 2 0.983
626 202 3 256 0 0 0 1 1 0 2.521
627 201 4 369 0 2 3 0 1 3 0.73
628 202 3 257 3 3 2 1 1 2 0.679
629 201 4 370 3 0 1 0 1 1 0.695
630 202 3 258 3 3 1 1 1 1 0.774
631 201 4 371 3 3 3 2 0 2 0.994
632 202 3 259 0 0 2 1 0 0 0.961
633 201 4 372 2 2 0 2 0 1 0.743
634 202 3 260 0 2 0 0 0 1 2.394
635 201 4 373 3 3 2 1 1 2 0.783
636 201 4 374 3 3 2 2 1 2 0.647
637 202 3 261 1 2 0 0 0 1 1.791
638 201 4 375 3 3 0 1 1 0 0.607
639 202 3 262 2 2 2 1 1 2 0.778
640 201 4 376 1 1 1 1 1 1 0.656
641 202 3 263 2 2 2 1 1 2 0.23
642 201 4 377 1 1 1 1 1 1 0.647
643 202 3 264 3 1 0 0 0 2 1.125
644 201 4 378 3 3 2 1 1 2 0.655
645 202 3 265 0 0 0 1 1 0 0.6
646 201 4 379 0 0 3 1 1 3 0.646
647 202 3 266 3 1 1 0 0 2 2.25
648 201 4 380 1 2 1 0 1 1 0.862
649 202 3 267 3 3 1 2 1 1 1.146
650 201 4 381 1 0 1 0 0 2 0.91
651 202 3 268 1 1 2 1 1 2 0.616
652 201 4 382 1 1 2 1 1 2 0.623
653 201 4 383 1 0 0 0 0 1 0.44
654 202 3 269 2 2 2 1 1 2 0.873
655 202 3 270 0 0 0 2 1 0 0.695
656 201 4 384 2 2 2 2 1 2 0.792
657 202 3 271 0 0 3 2 0 0 1.036
658 201 4 385 3 3 2 1 0 3 0.874
659 201 4 386 0 0 2 1 1 2 0.717
660 202 3 272 1 2 3 0 1 3 1.233
661 201 4 387 1 0 3 0 1 3 1.002
662 202 3 273 3 1 3 0 0 2 1.452
663 201 4 388 1 1 3 1 1 3 0.634
664 202 3 274 1 2 0 0 0 1 1.955
665 201 4 389 3 3 1 2 1 1 0.744
666 201 4 390 0 0 1 1 1 1 0.532
667 202 3 275 1 1 1 1 0 3 1.816
668 202 3 276 2 2 1 2 1 1 0.632
669 201 4 391 3 0 3 0 1 3 1.952
670 202 3 277 3 2 1 0 1 1 0.425
671 201 4 392 2 2 1 2 1 1 0.735
672 202 3 278 0 0 0 1 1 0 0.657
673 201 4 393 2 2 0 2 1 0 0.657
674 202 3 279 1 1 0 2 0 2 0.502
675 201 4 394 2 1 2 0 1 2 0.832
676 202 3 280 2 2 1 2 0 0 1.828
677 201 4 395 2 0 3 0 0 1 2.393
678 202 3 281 0 2 0 0 0 1 0.766
679 201 4 396 1 1 1 2 1 1 0.699
680 202 3 282 3 3 2 1 1 2 0.542
681 201 4 397 0 0 1 1 1 1 0.773
682 202 3 283 0 0 0 1 0 1 0.754
683 202 3 284 3 3 1 2 0 2 0.759
684 201 4 398 3 3 0 1 0 2 0.848
685 201 4 399 2 2 1 1 1 1 0.612
686 202 3 285 1 2 1 0 1 1 1.767
687 202 3 286 0 0 1 2 1 1 0.645
688 202 3 287 3 3 1 2 1 1 0.667
689 202 3 288 0 0 2 1 1 2 0.49
690 201 5 400 2 2 0 1 1 0 0.547
691 202 3 289 1 1 2 1 1 2 0.64
692 201 5 401 1 1 0 2 0 1 0.972
693 202 3 290 0 1 1 0 1 1 0.976
694 201 5 402 0 0 2 1 1 2 0.676
695 202 3 291 1 1 0 1 0 2 0.869
696 201 5 403 0 1 1 0 0 3 0.794
697 202 3 292 2 2 3 1 0 0 0.608
698 201 5 404 1 1 2 1 1 2 0.992
699 202 3 293 2 3 0 0 0 2 0.709
700 201 5 405 3 3 2 2 1 2 0.641
701 202 3 294 1 0 0 0 1 0 1.191
702 201 5 406 2 3 1 0 0 2 0.689
703 202 3 295 3 3 1 1 0 0 0.868
704 201 5 407 2 3 3 0 0 1 0.05
705 202 3 296 1 1 0 2 0 2 0.757
706 201 5 408 0 2 1 0 0 2 0.883
707 202 3 297 0 0 1 2 1 1 0.539
708 201 5 409 0 0 2 1 1 2 0.621
709 202 3 298 2 2 0 2 0 1 1.445
710 201 5 410 0 0 3 2 1 3 0.771
711 202 3 299 2 2 2 1 1 2 0.54
712 201 5 411 3 3 0 1 1 0 0.686
713 201 5 412 2 2 0 2 1 0 0.714
714 202 3 300 0 1 0 0 0 1 1.632
715 201 5 413 3 3 0 1 1 0 0.6
716 201 5 414 2 2 2 1 1 2 1.049
717 202 3 301 2 2 2 2 0 0 5.286
718 201 5 415 2 2 0 2 1 0 0.648
719 201 5 416 1 1 1 2 0 2 0.59
720 202 3 302 0 0 0 2 1 0 1.402
721 201 5 417 3 3 2 1 1 2 0.843
722 202 3 303 3 3 3 2 0 1 0.981
723 202 3 304 1 1 3 1 0 2 0.685
724 201 5 418 1 2 1 0 1 1 0.691
725 202 3 305 3 0 3 0 0 1 0.623
726 201 5 419 2 2 0 2 0 2 0.879
727 201 5 420 2 2 0 1 1 0 0.746
728 202 3 306 1 2 1 0 0 0 1.379
729 201 5 421 1 1 2 1 0 1 1.87
730 202 3 307 0 1 0 0 0 2 1.581
731 201 5 422 3 1 2 0 1 2 1.414
732 202 3 308 2 2 3 1 0 1 1.551
733 202 3 309 0 0 3 2 0 2 0.44
734 201 5 423 2 2 1 1 1 1 0.985
735 202 3 310 1 1 0 2 0 1 0.201
736 201 5 424 1 1 3 1 1 3 0.773
737 202 3 311 2 2 1 1 0 0 0.621
738 201 5 425 0 0 2 2 1 2 0.998
739 202 3 312 1 1 0 2 0 1 0.696
740 201 5 426 0 0 2 2 1 2 0.886
741 202 3 313 1 2 2 0 1 2 0.682
742 201 5 427 3 3 0 2 1 0 0.803
743 202 3 314 3 3 2 2 1 2 0.702
744 202 3 315 0 0 1 2 1 1 0.546
745 201 5 428 1 1 0 1 0 3 1.197
746 202 3 316 0 2 2 0 0 0 0.486
747 201 5 429 3 3 0 2 0 1 0.546
748 202 3 317 1 1 1 1 0 2 0.175
749 201 5 430 3 3 2 1 1 2 0.777
750 202 3 318 2 0 3 0 0 1 0.132
751 201 5 431 0 0 3 1 0 2 0.588
752 202 3 319 0 0 3 2 0 0 0.4
753 201 5 432 2 3 3 0 0 1 0.465
754 201 5 433 3 3 2 2 1 2 0.937
755 202 4 320 3 2 1 0 0 0 0.631
756 201 5 434 2 2 1 1 1 1 0.838
757 202 4 321 2 2 2 1 0 0 0.716
758 201 5 435 2 2 0 1 1 0 0.599
759 202 4 322 2 0 2 0 0 0 0.669
760 202 4 323 1 1 3 2 1 3 0.694
761 201 5 436 2 1 1 0 1 1 1.216
762 202 4 324 3 3 2 1 1 2 0.452
763 201 5 437 1 1 2 1 1 2 0.755
764 201 5 438 1 2 2 0 0 1 0.614
765 202 4 325 0 1 0 0 1 0 1.852
766 201 5 439 2 2 0 1 1 0 0.849
767 202 4 326 3 3 3 1 1 3 0.801
768 202 4 327 0 0 0 1 0 1 0.844
769 201 5 440 0 0 2 1 1 2 0.85
770 202 4 328 2 3 2 0 0 1 0.745
771 201 5 441 1 2 3 0 1 3 0.907
772 201 5 442 2 2 1 2 1 1 0.815
773 202 4 329 2 2 0 2 1 0 1.487
774 201 5 443 1 2 1 0 1 1 0.592
775 202 4 330 2 2 0 1 1 0 0.641
776 202 4 331 3 3 1 1 1 1 0.385
777 201 5 444 2 1 2 0 1 2 0.85
778 202 4 332 3 3 3 1 0 1 0.202
779 201 5 445 2 2 0 1 1 0 0.633
780 202 4 333 2 1 1 0 0 2 1.006
781 201 5 446 1 2 0 0 1 0 0.673
782 202 4 334 0 0 1 1 1 1 0.437
783 201 5 447 3 2 2 0 1 2 0.712
784 202 4 335 2 2 0 2 1 0 1.058
785 201 5 448 3 3 1 1 1 1 0.661
786 202 4 336 0 0 1 1 1 1 0.451
787 201 5 449 2 2 2 2 1 2 0.858
788 202 4 337 1 1 1 2 0 2 0.816
789 201 5 450 0 1 2 0 1 2 0.762
790 202 4 338 0 1 3 0 1 3 1.102
791 201 5 451 1 1 1 2 1 1 0.788
792 202 4 339 0 0 2 2 0 3 1.267
793 201 5 452 1 1 2 2 1 2 0.796
794 201 5 453 1 1 0 1 1 0 0.646
795 202 4 340 1 1 3 2 0 1 1.462
796 201 5 454 0 0 3 1 1 3 0.71
797 202 4 341 0 0 3 2 1 3 0.93
798 201 5 455 1 2 3 0 1 3 0.788
799 202 4 342 1 1 1 2 0 0 1.229
800 201 5 456 3 3 3 2 1 3 0.82
801 202 4 343 2 2 3 2 0 1 0.658
802 201 5 457 0 0 2 1 1 2 0.741
803 202 4 344 0 0 3 1 1 3 0.454
804 201 5 458 1 1 3 1 1 3 0.849
805 202 4 345 1 1 3 1 0 2 1.212
806 201 5 459 3 3 0 2 1 0 0.655
807 202 4 346 2 2 3 1 0 1 0.236
808 202 4 347 0 1 2 0 0 1 0.19
809 201 5 460 2 2 1 1 1 1 0.646
810 202 4 348 2 2 2 1 0 0 0.546
811 201 5 461 3 3 2 2 1 2 0.86
812 202 4 349 3 3 2 2 1 2 0.24
813 201 5 462 1 2 2 0 1 2 0.676
814 202 4 350 1 1 2 1 1 2 0.499
815 201 5 463 2 3 2 0 0 3 0.546
816 202 4 351 3 3 3 2 1 3 0.67
817 201 5 464 2 2 2 1 1 2 0.921
818 202 4 352 3 3 2 1 1 2 0.397
819 201 5 465 0 0 1 2 1 1 0.821
820 202 4 353 0 0 2 1 0 1 0.662
821 202 4 354 2 2 2 2 1 2 0.512
822 201 5 466 3 3 2 1 1 2 1.742
823 201 5 467 0 0 0 1 1 0 0.679
824 202 4 355 1 0 1 0 1 1 1.973
825 201 5 468 1 1 1 2 0 3 0.707
826 202 4 356 1 1 2 1 1 2 0.533
827 201 5 469 2 2 3 2 1 3 0.914
828 202 4 357 2 1 1 0 1 1 0.665
829 201 5 470 0 0 3 2 1 3 0.734
830 202 4 358 3 3 0 2 1 0 0.542
831 201 5 471 2 2 1 1 1 1 0.578
832 202 4 359 0 0 3 2 1 3 0.648
833 201 5 472 1 1 3 2 0 2 0.826
834 202 4 360 0 1 1 0 1 1 1.065
835 201 5 473 3 3 3 2 0 2 0.701
836 202 4 361 3 0 3 0 0 1 1.306
837 201 5 474 3 1 0 0 1 0 0.726
838 202 4 362 3 3 2 1 1 2 0.486
839 201 5 475 0 1 0 0 0 1 0.787
840 202 4 363 0 0 0 2 1 0 0.37
841 201 5 476 1 0 2 0 1 2 0.984
842 202 4 364 2 1 0 0 0 1 1.611
843 202 4 365 1 1 2 2 1 2 0.482
844 202 4 366 2 2 0 1 1 0 0.297
845 201 5 477 2 2 2 2 1 2 6.578
846 202 4 367 0 1 0 0 0 2 2.293
847 201 5 478 0 0 3 2 1 3 0.787
848 202 4 368 3 3 3 2 0 2 0.596
849 201 5 479 3 3 2 2 1 2 0.851
850 202 4 369 3 3 2 1 1 2 0.521
851 202 4 370 3 1 1 0 0 0 0.702
852 202 4 371 0 0 1 2 0 2 0.885
853 202 4 372 0 1 1 0 1 1 0.688
854 202 4 373 0 0 3 1 2 -1 0.671
855 202 4 374 1 1 2 2 0 1 3.847
856 202 4 375 0 2 1 0 0 0 0.729
857 202 4 376 2 2 3 2 0 1 0.496
858 202 4 377 2 2 1 2 0 0 0.463
859 202 4 378 1 1 2 2 0 1 0.383
860 202 4 379 2 2 2 1 0 1 1.196
861 202 4 380 0 2 3 0 0 1 0.861
862 202 4 381 3 3 1 2 1 1 0.463
863 202 4 382 2 2 3 1 0 2 0.678
864 202 4 383 0 0 2 1 1 2 0.536
865 202 4 384 3 3 1 2 0 0 1.01
866 202 4 385 1 0 1 0 1 1 0.473
867 202 4 386 0 0 3 1 1 3 0.511
868 202 4 387 0 0 3 1 1 3 0.26
869 202 4 388 3 0 1 0 0 3 0.53
870 202 4 389 1 1 0 2 0 2 0.512
871 202 4 390 2 3 2 0 0 1 0.857
872 202 4 391 2 0 3 0 0 1 0.917
873 202 4 392 3 3 1 2 0 3 0.693
874 202 4 393 1 1 2 1 0 1 2.647
875 202 4 394 3 3 1 2 0 3 0.697
876 202 4 395 3 2 1 0 0 0 0.635
877 202 4 396 3 3 3 2 1 3 0.389
878 202 4 397 0 1 1 0 0 0 0.51
879 202 4 398 0 0 1 2 0 3 0.173
880 202 4 399 3 3 0 2 0 2 0.695
881 202 5 400 0 0 1 1 0 0 0.389
882 202 5 401 3 3 0 2 0 2 0.232
883 202 5 402 0 0 2 1 1 2 0.474
884 202 5 403 1 0 0 0 0 1 0.817
885 202 5 404 1 1 3 2 0 2 0.645
886 202 5 405 1 2 0 0 1 0 0.584
887 202 5 406 3 3 0 2 0 3 0.641
888 202 5 407 0 0 3 2 1 3 0.618
889 202 5 408 2 2 1 2 1 1 0.945
890 202 5 409 3 0 0 0 0 1 0.518
891 202 5 410 0 0 2 1 1 2 0.623
892 202 5 411 0 0 2 2 1 2 0.31
893 202 5 412 1 1 2 2 0 0 0.472
894 202 5 413 1 0 0 0 0 2 0.69
895 202 5 414 1 1 1 1 1 1 0.564
896 202 5 415 3 2 0 0 1 0 0.663
897 202 5 416 3 0 2 0 0 0 0.566
898 202 5 417 1 1 0 2 1 0 0.642
899 202 5 418 1 1 2 2 1 2 0.473
900 202 5 419 3 1 3 0 0 2 1.055
901 202 5 420 0 0 0 1 1 0 0.292
902 202 5 421 2 2 2 2 0 1 0.583
903 202 5 422 3 3 0 1 0 1 1.389
904 202 5 423 3 3 0 1 1 0 0.518
905 202 5 424 0 0 2 1 1 2 0.795
906 202 5 425 1 1 2 1 0 0 0.518
907 202 5 426 3 3 2 1 1 2 0.686
908 202 5 427 0 0 1 2 0 0 0.802
909 202 5 428 3 1 0 0 0 2 0.368
910 202 5 429 0 0 0 1 1 0 0.302
911 202 5 430 3 3 2 1 0 3 0.714
912 202 5 431 2 1 1 0 0 2 0.588
913 202 5 432 2 0 3 0 0 0 0.625
914 202 5 433 2 2 0 2 0 1 0.268
915 202 5 434 0 1 2 0 0 3 0.029
916 202 5 435 2 1 1 0 0 0 0.341
917 202 5 436 2 2 0 1 0 1 0.228
918 202 5 437 0 0 1 1 0 0 0.791
919 202 5 438 1 1 2 2 1 2 0.459
920 202 5 439 0 0 1 1 1 1 0.418
921 202 5 440 0 0 0 1 1 0 0.347
922 202 5 441 2 2 2 2 0 1 0.7
923 202 5 442 1 1 2 1 0 1 0.638
924 202 5 443 2 2 3 2 0 0 0.504
925 202 5 444 2 0 2 0 0 0 0.64
926 202 5 445 0 0 1 2 1 1 0.762
927 202 5 446 0 0 1 1 1 1 0.358
928 202 5 447 3 2 3 0 0 2 0.577
929 202 5 448 3 3 3 1 1 3 0.455
930 202 5 449 2 2 1 1 0 0 0.51
931 202 5 450 0 0 1 2 1 1 0.7
932 202 5 451 3 0 2 0 0 1 0.795
933 202 5 452 1 1 3 1 1 3 0.474
934 202 5 453 0 0 1 1 1 1 0.608
935 202 5 454 1 1 1 1 0 0 0.577
936 202 5 455 0 0 3 2 1 3 0.589
937 202 5 456 1 2 3 0 0 1 0.8
938 202 5 457 0 0 0 2 0 2 0.404
939 202 5 458 3 3 0 2 1 0 0.454
940 202 5 459 1 1 1 2 0 2 0.691
941 202 5 460 1 2 0 0 0 1 0.645
942 202 5 461 2 2 1 1 1 1 0.585
943 202 5 462 1 1 3 1 1 3 0.684
944 202 5 463 0 1 0 0 1 0 0.682
945 202 5 464 1 2 2 0 0 1 0.873
946 202 5 465 3 3 2 2 1 2 0.81
947 202 5 466 1 2 1 0 1 1 1.411
948 202 5 467 2 2 1 2 1 1 0.43
949 202 5 468 0 0 1 2 0 0 0.636
950 202 5 469 2 2 0 1 1 0 0.768
951 202 5 470 3 2 1 0 1 1 1.1
952 202 5 471 1 1 2 1 1 2 0.315
953 202 5 472 1 1 2 2 1 2 0.286
954 202 5 473 3 3 1 1 1 1 0.955
955 202 5 474 3 1 3 0 0 1 0.848
956 202 5 475 2 2 2 1 0 1 0.525
957 202 5 476 1 1 0 2 0 1 0.667
958 202 5 477 3 3 1 2 1 1 0.388
959 202 5 478 3 1 3 0 0 0 1.373
960 202 5 479 3 0 3 0 1 3 0.694
961 207 0 0 3 3 2 1 1 2 0.903
962 207 0 1 0 1 2 0 0 1 0.94
963 207 0 2 0 0 0 1 1 0 0.499
964 207 0 3 0 1 0 0 0 1 0.839
965 207 0 4 2 2 0 2 0 1 0.696
966 207 0 5 2 1 3 0 0 2 0.648
967 207 0 6 2 0 3 0 1 3 2.378
968 207 0 7 1 1 3 2 0 2 1.92
969 207 0 8 1 1 0 1 1 0 0.404
970 207 0 9 3 3 3 2 0 1 0.561
971 207 0 10 3 3 2 2 1 2 0.652
972 207 0 11 3 3 1 2 1 1 0.752
973 207 0 12 0 0 3 2 1 3 0.992
974 207 0 13 0 0 3 1 1 3 0.354
975 207 0 14 2 0 3 0 0 2 1.163
976 207 0 15 2 2 1 2 1 1 1.169
977 207 0 16 3 3 2 2 1 2 1.488
978 207 0 17 1 2 1 0 1 1 0.784
979 207 0 18 1 2 3 0 0 1 0.873
980 207 0 19 1 1 3 2 0 2 0.537
981 207 0 20 3 3 0 1 0 2 0.559
982 207 0 21 0 0 2 2 1 2 0.906
983 207 0 22 1 2 1 0 1 1 0.703
984 207 0 23 0 1 3 0 0 2 0.492
985 207 0 24 3 3 3 1 1 3 0.819
986 207 0 25 2 2 3 1 1 3 0.587
987 207 0 26 3 3 0 1 0 2 0.683
988 207 0 27 2 0 3 0 1 3 2.332
989 207 0 28 3 3 2 1 0 1 1.598
990 207 0 29 1 1 2 1 1 2 1.454
991 207 0 30 1 1 2 2 1 2 0.917
992 207 0 31 1 1 2 2 1 2 0.544
993 207 0 32 0 2 1 0 1 1 0.578
994 207 0 33 0 0 0 1 0 2 0.707
995 207 0 34 0 0 3 1 1 3 0.803
996 207 0 35 3 3 1 1 1 1 0.699
997 207 0 36 3 3 3 2 0 0 0.461
998 207 0 37 0 0 1 2 0 2 0.475
999 207 0 38 2 1 2 0 1 2 0.979
1000 207 0 39 3 1 2 0 1 2 0.902
1001 207 0 40 1 1 2 1 1 2 0.411
1002 207 0 41 0 1 2 0 0 1 0.818
1003 207 0 42 3 3 0 2 1 0 0.307
1004 207 0 43 0 0 3 2 0 2 0.324
1005 207 0 44 1 0 0 0 0 3 0.257
1006 207 0 45 1 1 0 2 0 2 0.439
1007 207 0 46 2 2 0 2 1 0 0.598
1008 207 0 47 2 2 3 1 1 3 2.038
1009 207 0 48 2 2 0 1 1 0 0.322
1010 207 0 49 0 0 3 2 0 1 0.642
1011 207 0 50 2 2 0 1 0 2 0.484
1012 207 0 51 2 2 2 2 0 0 0.978
1013 207 0 52 2 0 2 0 1 2 0.488
1014 207 0 53 0 1 3 0 1 3 0.716
1015 207 0 54 2 2 3 1 1 3 0.681
1016 207 0 55 0 0 2 2 1 2 0.652
1017 207 0 56 3 1 2 0 1 2 0.874
1018 207 0 57 0 1 3 0 1 3 0.784
1019 207 0 58 2 1 0 0 1 0 0.601
1020 207 0 59 1 1 1 2 0 3 0.975
1021 207 0 60 2 2 2 1 1 2 0.389
1022 207 0 61 1 1 0 1 0 3 0.301
1023 207 0 62 0 0 0 1 1 0 0.427
1024 207 0 63 2 2 2 1 1 2 0.449
1025 207 0 64 0 0 3 1 1 3 0.615
1026 207 0 65 0 1 0 0 0 3 0.711
1027 207 0 66 3 3 2 1 1 2 0.854
1028 207 0 67 2 2 0 2 0 1 0.771
1029 207 0 68 2 2 3 1 1 3 0.528
1030 207 0 69 0 0 3 2 0 0 0.233
1031 207 0 70 3 3 0 2 0 2 0.352
1032 207 0 71 0 1 3 0 0 1 0.652
1033 207 0 72 1 1 1 1 1 1 0.525
1034 207 0 73 0 0 2 2 0 0 0.646
1035 207 0 74 2 2 1 1 0 2 0.6
1036 207 0 75 0 0 2 2 0 1 0.705
1037 207 0 76 1 1 2 2 0 3 0.855
1038 207 0 77 1 1 0 2 0 3 0.919
1039 207 0 78 0 0 0 2 1 0 0.356
1040 207 0 79 3 2 0 0 1 0 0.397
1041 207 1 80 2 2 3 2 1 3 1.25
1042 207 1 81 2 2 3 1 1 3 0.33
1043 207 1 82 3 2 0 0 1 0 0.42
1044 207 1 83 1 1 3 1 1 3 0.698
1045 207 1 84 2 0 0 0 1 0 0.246
1046 207 1 85 3 3 3 1 1 3 0.339
1047 207 1 86 0 2 3 0 0 2 2.588
1048 207 1 87 2 2 0 1 1 0 0.345
1049 207 1 88 1 1 1 1 1 1 0.514
1050 207 1 89 2 2 1 2 1 1 1.035
1051 207 1 90 1 1 2 1 1 2 0.62
1052 207 1 91 1 1 2 2 1 2 0.577
1053 207 1 92 2 1 1 0 1 1 0.418
1054 207 1 93 3 3 2 2 0 3 0.686
1055 207 1 94 3 3 2 1 1 2 0.607
1056 207 1 95 1 1 1 2 1 1 0.661
1057 207 1 96 2 3 2 0 1 2 1.506
1058 207 1 97 2 1 0 0 0 1 0.484
1059 207 1 98 0 0 3 1 1 3 0.54
1060 207 1 99 2 2 3 2 1 3 0.452
1061 207 1 100 2 2 2 2 0 1 0.735
1062 207 1 101 0 0 2 1 0 0 0.478
1063 207 1 102 1 0 1 0 1 1 0.262
1064 207 1 103 2 2 1 1 0 2 0.45
1065 207 1 104 0 1 2 0 1 2 0.667
1066 207 1 105 1 1 3 1 0 2 0.632
1067 207 1 106 2 2 1 2 0 3 0.433
1068 207 1 107 2 2 0 1 1 0 0.427
1069 207 1 108 2 2 1 2 1 1 0.487
1070 207 1 109 2 3 1 0 0 2 0.699
1071 207 1 110 2 2 2 1 0 1 0.635
1072 207 1 111 3 2 2 0 1 2 0.51
1073 207 1 112 3 3 3 1 0 1 0.465
1074 207 1 113 0 0 2 2 1 2 0.672
1075 207 1 114 1 1 2 1 1 2 0.525
1076 207 1 115 1 0 3 0 0 1 0.448
1077 207 1 116 1 1 0 1 0 1 0.601
1078 207 1 117 2 2 2 2 0 1 0.707
1079 207 1 118 1 2 1 0 1 1 0.418
1080 207 1 119 2 2 2 2 1 2 0.447
1081 207 1 120 0 0 0 2 1 0 0.314
1082 207 1 121 1 2 2 0 1 2 0.389
1083 207 1 122 2 2 3 1 0 1 0.604
1084 207 1 123 2 0 0 0 0 2 0.575
1085 207 1 124 3 0 3 0 0 1 1.412
1086 207 1 125 3 3 1 2 0 0 3.214
1087 207 1 126 2 2 2 2 0 3 1.85
1088 208 0 0 1 2 0 0 0 1 1.504
1089 207 1 127 3 3 0 2 0 2 1.495
1090 207 1 128 0 0 1 2 1 1 0.497
1091 208 0 1 1 2 3 0 1 3 0.556
1092 208 0 2 3 3 3 2 1 3 0.396
1093 207 1 129 3 3 3 1 0 2 1.428
1094 208 0 3 2 2 1 1 1 1 0.372
1095 207 1 130 2 0 0 0 0 1 1.097
1096 208 0 4 2 3 0 0 0 3 1.085
1097 207 1 131 1 1 3 1 0 2 1.1
1098 208 0 5 3 3 3 1 1 3 0.279
1099 207 1 132 1 1 2 2 1 2 0.579
1100 208 0 6 1 1 3 1 1 3 0.395
1101 207 1 133 1 1 1 1 1 1 0.371
1102 208 0 7 1 1 3 2 1 3 0.273
1103 207 1 134 1 1 1 2 1 1 0.433
1104 208 0 8 2 3 2 0 1 2 0.886
1105 207 1 135 1 1 2 1 1 2 0.359
1106 208 0 9 1 0 0 0 1 0 0.38
1107 207 1 136 0 1 1 0 1 1 1.248
1108 208 0 10 3 2 2 0 0 1 0.636
1109 207 1 137 2 3 1 0 0 3 0.809
1110 208 0 11 0 0 3 1 1 3 0.727
1111 207 1 138 2 2 2 2 1 2 0.587
1112 208 0 12 3 3 2 1 1 2 0.515
1113 207 1 139 1 1 3 1 1 3 0.508
1114 208 0 13 3 3 3 2 1 3 0.437
1115 207 1 140 3 1 2 0 1 2 0.367
1116 208 0 14 0 2 1 0 1 1 0.411
1117 207 1 141 3 3 1 2 1 1 0.702
1118 208 0 15 0 0 0 2 1 0 0.681
1119 207 1 142 2 1 1 0 0 2 0.57
1120 208 0 16 0 0 3 2 1 3 0.667
1121 207 1 143 3 3 1 1 0 0 0.574
1122 208 0 17 2 2 0 1 1 0 0.529
1123 207 1 144 1 1 3 1 0 0 0.627
1124 208 0 18 0 1 1 0 1 1 0.34
1125 208 0 19 2 2 2 2 1 2 0.348
1126 207 1 145 0 0 0 2 0 1 1.819
1127 208 0 20 1 1 0 2 0 2 0.636
1128 207 1 146 3 1 1 0 0 3 0.931
1129 208 0 21 0 1 0 0 0 1 0.886
1130 208 0 22 1 1 2 1 1 2 0.304
1131 207 1 147 2 1 1 0 0 2 2.491
1132 208 0 23 0 2 2 0 0 1 0.339
1133 207 1 148 0 0 3 1 1 3 0.587
1134 208 0 24 2 2 3 2 1 3 0.51
1135 207 1 149 0 0 3 1 0 2 0.683
1136 208 0 25 1 2 2 0 1 2 0.45
1137 207 1 150 1 1 3 2 0 1 0.882
1138 208 0 26 0 0 0 1 1 0 0.339
1139 207 1 151 0 1 0 0 1 0 0.604
1140 208 0 27 0 0 3 2 0 2 0.515
1141 207 1 152 1 1 3 1 1 3 0.635
1142 208 0 28 1 1 0 1 1 0 0.394
1143 207 1 153 3 3 1 1 0 2 0.538
1144 208 0 29 0 0 1 1 1 1 0.306
1145 208 0 30 3 3 0 1 1 0 0.405
1146 207 1 154 3 2 3 0 1 3 1.552
1147 208 0 31 2 0 2 0 0 1 0.645
1148 207 1 155 0 0 2 2 0 1 0.58
1149 208 0 32 3 3 0 2 1 0 0.397
1150 207 1 156 1 1 1 1 1 1 0.84
1151 208 0 33 3 3 0 1 1 0 0.253
1152 207 1 157 1 1 2 1 1 2 0.863
1153 208 0 34 2 0 2 0 0 0 1.674
1154 207 1 158 2 2 1 1 1 1 0.358
1155 208 0 35 0 0 1 1 1 1 0.24
1156 207 1 159 3 0 2 0 1 2 0.735
1157 208 0 36 0 2 2 0 1 2 0.397
1158 208 0 37 2 2 2 1 1 2 0.254
1159 208 0 38 2 2 1 1 1 1 0.314
1160 208 0 39 2 1 0 0 1 0 0.821
1161 208 0 40 3 3 0 2 1 0 0.356
1162 207 2 160 3 0 3 0 0 1 0.554
1163 208 0 41 2 2 3 1 1 3 0.501
1164 207 2 161 0 2 3 0 1 3 0.447
1165 208 0 42 3 3 3 2 0 2 0.583
1166 207 2 162 2 0 3 0 0 2 0.357
1167 208 0 43 2 0 3 0 0 1 1.067
1168 207 2 163 2 2 3 1 0 2 0.705
1169 208 0 44 2 2 2 2 1 2 0.356
1170 207 2 164 1 1 3 1 0 1 1.153
1171 208 0 45 2 2 2 1 1 2 0.23
1172 207 2 165 0 0 0 1 1 0 0.24
1173 208 0 46 2 2 1 2 1 1 0.346
1174 207 2 166 2 2 3 1 1 3 0.509
1175 208 0 47 1 1 3 1 1 3 0.458
1176 207 2 167 1 2 2 0 1 2 0.577
1177 208 0 48 2 2 3 2 1 3 0.39
1178 207 2 168 1 0 3 0 1 3 0.961
1179 208 0 49 0 1 1 0 1 1 0.358
1180 207 2 169 3 3 0 1 0 2 0.548
1181 208 0 50 2 2 0 2 1 0 0.669
1182 207 2 170 1 1 1 1 1 1 0.442
1183 208 0 51 2 2 3 1 1 3 0.427
1184 208 0 52 1 1 3 1 1 3 0.272
1185 207 2 171 2 2 0 1 0 2 0.515
1186 208 0 53 0 0 0 1 1 0 0.316
1187 207 2 172 3 3 3 1 1 3 0.714
1188 208 0 54 0 0 0 2 1 0 0.557
1189 207 2 173 3 3 0 2 0 2 0.7
1190 208 0 55 0 0 0 1 1 0 0.271
1191 207 2 174 2 3 2 0 1 2 1.099
1192 208 0 56 3 3 1 2 1 1 0.401
1193 207 2 175 1 1 2 2 0 1 0.703
1194 208 0 57 3 3 0 1 1 0 0.353
1195 207 2 176 0 2 2 0 0 0 0.463
1196 208 0 58 1 1 3 1 1 3 0.339
1197 207 2 177 2 2 0 2 0 2 0.494
1198 208 0 59 1 1 1 2 1 1 0.386
1199 207 2 178 3 3 2 2 0 3 0.315
1200 208 0 60 0 1 2 0 0 1 0.787
1201 207 2 179 3 3 1 1 0 2 0.937
1202 208 0 61 1 2 3 0 0 0 0.624
1203 207 2 180 0 0 3 1 1 3 0.512
1204 208 0 62 2 1 1 0 1 1 0.763
1205 207 2 181 3 3 2 2 1 2 0.377
1206 208 0 63 3 1 2 0 1 2 0.397
1207 207 2 182 1 2 2 0 0 1 0.994
1208 208 0 64 1 2 3 0 0 1 0.549
1209 207 2 183 1 1 2 2 1 2 0.573
1210 208 0 65 0 0 2 2 1 2 0.354
1211 207 2 184 1 1 0 1 1 0 0.398
1212 208 0 66 2 2 2 1 1 2 0.355
1213 207 2 185 3 3 2 1 1 2 0.534
1214 208 0 67 2 2 2 2 1 2 0.234
1215 208 0 68 3 3 1 2 1 1 0.318
1216 207 2 186 1 1 0 2 0 1 1.102
1217 208 0 69 1 1 1 2 1 1 0.414
1218 207 2 187 1 2 3 0 1 3 0.671
1219 208 0 70 1 1 0 1 1 0 0.318
1220 207 2 188 3 3 1 1 1 1 0.555
1221 208 0 71 0 2 2 0 1 2 0.384
1222 208 0 72 2 2 0 2 1 0 0.367
1223 207 2 189 2 2 1 1 0 2 0.988
1224 207 2 190 1 1 0 1 0 1 0.37
1225 208 0 73 0 1 3 0 1 3 0.376
1226 208 0 74 2 2 2 2 1 2 0.287
1227 207 2 191 1 0 0 0 1 0 0.59
1228 208 0 75 0 1 0 0 0 3 0.546
1229 207 2 192 2 0 3 0 1 3 0.83
1230 208 0 76 0 0 1 2 1 1 0.287
1231 207 2 193 3 3 3 2 0 1 0.572
1232 208 0 77 2 2 1 1 1 1 0.322
1233 207 2 194 2 3 0 0 0 2 0.433
1234 208 0 78 3 3 2 2 1 2 0.29
1235 207 2 195 0 0 2 1 0 1 0.714
1236 208 0 79 1 1 2 1 1 2 0.238
1237 207 2 196 0 0 0 1 1 0 0.218
1238 207 2 197 0 2 3 0 0 1 0.504
1239 207 2 198 3 2 3 0 0 1 0.527
1240 207 2 199 0 0 1 1 0 0 0.421
1241 207 2 200 0 0 2 2 1 2 0.517
1242 207 2 201 2 3 3 0 0 1 0.632
1243 207 2 202 1 1 0 2 0 2 0.944
1244 207 2 203 0 0 2 2 0 0 0.509
1245 207 2 204 0 0 0 2 0 1 0.634
1246 207 2 205 3 3 0 1 0 2 0.556
1247 207 2 206 0 0 1 1 1 1 0.465
1248 207 2 207 2 2 1 2 0 2 0.62
1249 207 2 208 3 1 1 0 0 2 0.831
1250 207 2 209 2 2 0 2 0 1 0.769
1251 207 2 210 3 3 2 2 0 3 0.868
1252 207 2 211 0 0 3 1 1 3 0.989
1253 207 2 212 0 0 2 2 1 2 0.518
1254 208 1 80 1 2 3 0 1 3 0.378
1255 207 2 213 0 0 0 2 0 1 0.847
1256 208 1 81 3 1 2 0 1 2 0.386
1257 207 2 214 3 2 2 0 1 2 0.506
1258 208 1 82 2 2 3 1 1 3 0.283
1259 207 2 215 3 0 3 0 1 3 0.605
1260 208 1 83 0 1 2 0 1 2 0.247
1261 207 2 216 0 0 3 1 1 3 0.333
1262 208 1 84 2 2 1 2 1 1 0.242
1263 207 2 217 0 0 0 2 1 0 0.525
1264 208 1 85 2 2 1 1 1 1 0.296
1265 207 2 218 3 3 3 2 1 3 0.613
1266 208 1 86 1 2 2 0 1 2 0.611
1267 207 2 219 2 0 2 0 1 2 0.485
1268 208 1 87 1 2 3 0 1 3 0.403
1269 207 2 220 0 0 1 2 1 1 0.543
1270 208 1 88 2 0 1 0 1 1 0.331
1271 207 2 221 2 2 0 2 0 1 0.727
1272 208 1 89 0 2 2 0 1 2 0.245
1273 207 2 222 3 3 3 2 1 3 0.364
1274 208 1 90 2 2 2 2 1 2 0.169
1275 207 2 223 3 3 0 1 0 2 0.5
1276 208 1 91 1 1 2 2 0 0 0.67
1277 208 1 92 1 1 1 1 1 1 0.256
1278 207 2 224 1 1 3 1 0 1 0.363
1279 208 1 93 1 1 3 2 1 3 0.331
1280 207 2 225 1 1 3 2 0 2 0.477
1281 208 1 94 3 2 2 0 1 2 0.245
1282 207 2 226 3 3 3 2 0 2 0.747
1283 208 1 95 3 3 3 1 1 3 0.274
1284 207 2 227 2 2 1 2 1 1 0.512
1285 208 1 96 0 0 0 2 1 0 0.364
1286 207 2 228 0 1 3 0 0 2 1.027
1287 208 1 97 2 2 0 2 1 0 0.308
1288 207 2 229 2 0 3 0 1 3 0.504
1289 208 1 98 1 1 2 1 1 2 0.255
1290 207 2 230 1 1 3 1 0 2 1.195
1291 208 1 99 3 3 0 1 1 0 0.356
1292 208 1 100 0 1 3 0 0 2 0.645
1293 207 2 231 2 0 2 0 1 2 0.697
1294 208 1 101 2 2 2 2 1 2 0.221
1295 207 2 232 0 2 0 0 0 2 0.614
1296 208 1 102 2 2 2 2 1 2 0.257
1297 207 2 233 1 2 2 0 0 1 0.874
1298 208 1 103 2 2 2 2 1 2 0.204
1299 207 2 234 2 2 1 1 0 2 0.579
1300 208 1 104 0 0 0 1 1 0 0.235
1301 207 2 235 0 1 2 0 0 3 0.552
1302 208 1 105 0 0 0 1 1 0 0.241
1303 207 2 236 0 0 2 1 1 2 0.525
1304 208 1 106 2 2 3 2 1 3 0.38
1305 208 1 107 2 2 1 2 1 1 0.45
1306 207 2 237 2 2 3 1 0 1 0.672
1307 208 1 108 0 0 1 1 1 1 0.24
1308 207 2 238 1 1 3 1 0 2 0.881
1309 208 1 109 2 2 1 2 1 1 0.396
1310 207 2 239 2 2 1 1 1 1 0.619
1311 208 1 110 1 1 0 2 0 2 0.522
1312 208 1 111 0 2 0 0 1 0 0.315
1313 208 1 112 2 3 3 0 0 2 0.55
1314 208 1 113 2 2 2 1 1 2 0.211
1315 207 3 240 1 0 1 0 1 1 0.432
1316 208 1 114 3 3 0 2 1 0 0.384
1317 208 1 115 0 0 1 1 1 1 0.201
1318 207 3 241 0 0 0 1 1 0 0.374
1319 208 1 116 2 2 1 2 1 1 0.357
1320 207 3 242 0 0 0 1 1 0 0.222
1321 208 1 117 1 1 2 1 1 2 0.27
1322 207 3 243 0 1 0 0 0 2 1.228
1323 208 1 118 2 2 1 1 1 1 0.227
1324 207 3 244 2 2 1 2 1 1 0.383
1325 208 1 119 3 3 3 1 1 3 0.265
1326 207 3 245 0 0 3 2 1 3 0.637
1327 208 1 120 1 1 2 2 1 2 0.747
1328 207 3 246 1 1 0 2 0 2 0.53
1329 208 1 121 2 2 1 2 1 1 0.245
1330 207 3 247 1 1 0 1 1 0 0.488
1331 208 1 122 3 0 0 0 0 1 0.234
1332 207 3 248 2 1 1 0 0 2 0.396
1333 208 1 123 0 0 0 2 1 0 0.274
1334 207 3 249 2 3 3 0 0 1 0.599
1335 208 1 124 0 0 3 1 1 3 0.444
1336 207 3 250 0 0 0 1 1 0 0.219
1337 208 1 125 2 2 0 1 1 0 0.346
1338 208 1 126 0 0 0 2 1 0 0.25
1339 207 3 251 3 2 1 0 1 1 0.889
1340 208 1 127 3 3 3 1 1 3 0.343
1341 207 3 252 1 1 0 1 0 2 0.718
1342 208 1 128 3 3 3 2 1 3 0.279
1343 207 3 253 1 1 1 1 1 1 0.366
1344 208 1 129 2 2 2 2 1 2 0.249
1345 207 3 254 2 2 2 1 1 2 0.838
1346 208 1 130 2 2 1 1 1 1 0.318
1347 207 3 255 1 1 2 1 1 2 0.397
1348 208 1 131 1 1 2 1 1 2 0.297
1349 207 3 256 0 1 2 0 0 1 0.773
1350 208 1 132 1 1 2 1 1 2 0.292
1351 207 3 257 3 3 3 1 0 2 0.466
1352 208 1 133 0 1 3 0 0 2 0.44
1353 207 3 258 3 3 2 1 0 1 0.651
1354 208 1 134 3 3 3 1 1 3 0.306
1355 208 1 135 2 2 3 1 1 3 0.331
1356 207 3 259 1 1 3 2 0 0 0.915
1357 208 1 136 1 0 3 0 1 3 0.365
1358 207 3 260 2 2 2 1 1 2 0.796
1359 208 1 137 0 0 1 2 1 1 0.421
1360 207 3 261 2 1 0 0 0 1 0.661
1361 208 1 138 2 1 0 0 0 2 0.579
1362 207 3 262 3 3 2 2 0 3 0.444
1363 208 1 139 1 2 1 0 1 1 0.256
1364 207 3 263 3 3 3 2 0 1 0.747
1365 208 1 140 2 0 3 0 1 3 0.349
1366 207 3 264 3 0 2 0 1 2 1.498
1367 208 1 141 0 1 2 0 1 2 0.303
1368 208 1 142 0 0 1 2 1 1 0.304
1369 207 3 265 2 0 1 0 1 1 1.21
1370 208 1 143 1 0 1 0 1 1 0.251
1371 208 1 144 1 2 1 0 1 1 0.336
1372 208 1 145 2 2 3 1 1 3 0.578
1373 208 1 146 0 0 1 2 1 1 0.354
1374 208 1 147 1 1 2 2 1 2 0.209
1375 208 1 148 3 3 2 1 1 2 0.344
1376 208 1 149 0 1 3 0 1 3 0.585
1377 207 3 266 3 2 0 0 0 2 15.635
1378 208 1 150 2 1 1 0 1 1 0.317
1379 207 3 267 3 3 2 2 0 1 0.499
1380 208 1 151 2 2 3 2 1 3 0.309
1381 207 3 268 3 3 0 2 0 3 0.497
1382 208 1 152 3 0 1 0 1 1 0.336
1383 207 3 269 3 3 1 1 1 1 0.471
1384 208 1 153 2 2 1 2 0 2 0.537
1385 208 1 154 1 2 0 0 1 0 0.367
1386 207 3 270 0 2 0 0 0 1 1.18
1387 208 1 155 2 2 1 1 1 1 0.264
1388 207 3 271 0 1 1 0 0 2 1.227
1389 208 1 156 3 3 1 1 1 1 0.589
1390 207 3 272 3 3 3 2 1 3 1.134
1391 208 1 157 3 3 0 1 1 0 0.406
1392 207 3 273 0 0 3 2 1 3 0.513
1393 208 1 158 3 3 0 2 1 0 0.275
1394 207 3 274 1 1 3 1 0 2 1.108
1395 208 1 159 0 0 3 1 1 3 0.4
1396 207 3 275 2 3 0 0 0 1 1.478
1397 207 3 276 3 3 3 1 0 2 0.89
1398 207 3 277 3 3 2 1 0 3 0.995
1399 207 3 278 3 3 2 1 1 2 0.521
1400 207 3 279 0 1 3 0 0 0 0.956
1401 207 3 280 1 1 2 1 1 2 1.298
1402 207 3 281 1 1 1 1 1 1 0.393
1403 207 3 282 0 0 0 1 1 0 0.241
1404 207 3 283 0 0 0 2 1 0 0.243
1405 207 3 284 0 0 1 1 1 1 0.624
1406 207 3 285 1 1 2 2 1 2 0.597
1407 207 3 286 2 2 2 1 1 2 0.374
1408 207 3 287 0 0 2 1 0 0 0.238
1409 207 3 288 0 0 3 1 0 0 0.222
1410 207 3 289 3 3 0 2 0 2 0.933
1411 207 3 290 3 3 1 2 0 2 0.643
1412 207 3 291 0 2 1 0 1 1 1.205
1413 207 3 292 1 1 3 1 0 2 0.687
1414 207 3 293 0 1 3 0 1 3 0.767
1415 207 3 294 2 2 1 1 1 1 1.257
1416 207 3 295 0 0 3 2 1 3 1.415
1417 207 3 296 1 2 1 0 1 1 0.89
1418 207 3 297 3 3 1 2 0 2 0.565
1419 207 3 298 1 1 2 2 1 2 0.528
1420 207 3 299 3 3 3 2 0 1 0.521
1421 207 3 300 0 0 1 1 1 1 0.431
1422 207 3 301 0 0 2 2 1 2 0.524
1423 207 3 302 3 3 3 2 1 3 0.788
1424 207 3 303 1 1 2 1 0 1 0.477
1425 208 2 160 1 1 0 2 0 2 0.452
1426 207 3 304 0 0 3 2 1 3 0.539
1427 208 2 161 1 1 2 1 1 2 0.197
1428 207 3 305 0 0 2 1 1 2 0.462
1429 208 2 162 2 2 2 1 1 2 0.244
1430 207 3 306 0 1 1 0 1 1 0.403
1431 208 2 163 3 3 0 2 1 0 0.384
1432 207 3 307 1 1 2 2 1 2 0.511
1433 208 2 164 2 2 1 2 0 2 0.486
1434 207 3 308 2 2 3 2 0 1 1.049
1435 208 2 165 0 0 0 1 1 0 0.23
1436 207 3 309 0 0 3 1 1 3 0.396
1437 208 2 166 0 2 0 0 1 0 0.34
1438 207 3 310 3 2 1 0 0 2 0.996
1439 208 2 167 2 2 3 1 1 3 1.262
1440 207 3 311 1 1 3 1 0 1 0.394
1441 208 2 168 1 1 3 1 1 3 0.311
1442 207 3 312 0 0 3 2 1 3 0.57
1443 208 2 169 2 2 2 2 1 2 0.263
1444 207 3 313 3 3 2 2 1 2 0.849
1445 208 2 170 3 3 0 2 1 0 0.354
1446 208 2 171 2 2 0 1 1 0 0.291
1447 207 3 314 2 1 1 0 1 1 0.488
1448 208 2 172 1 1 1 2 1 1 0.309
1449 207 3 315 2 2 2 1 1 2 0.412
1450 208 2 173 0 2 2 0 1 2 0.336
1451 207 3 316 0 0 1 2 1 1 0.473
1452 208 2 174 0 0 1 2 0 0 0.496
1453 207 3 317 0 0 1 2 1 1 0.371
1454 208 2 175 3 0 0 0 1 0 0.304
1455 207 3 318 0 0 3 2 0 2 0.625
1456 208 2 176 1 1 1 2 0 2 0.626
1457 207 3 319 1 1 1 2 0 2 0.474
1458 208 2 177 3 3 0 2 1 0 0.378
1459 208 2 178 2 2 0 1 1 0 0.339
1460 207 4 320 0 2 0 0 0 1 0.482
1461 208 2 179 1 1 1 2 1 1 0.443
1462 207 4 321 0 0 3 2 1 3 0.624
1463 208 2 180 2 2 0 2 1 0 0.295
1464 207 4 322 1 0 3 0 1 3 0.726
1465 208 2 181 3 3 1 1 1 1 0.331
1466 208 2 182 2 2 3 2 1 3 0.571
1467 207 4 323 1 1 1 2 1 1 1.08
1468 207 4 324 0 0 2 1 0 3 0.327
1469 208 2 183 3 3 1 1 1 1 0.333
1470 207 4 325 2 2 0 2 0 2 0.506
1471 208 2 184 2 0 2 0 1 2 0.415
1472 207 4 326 0 0 2 1 1 2 0.385
1473 208 2 185 1 0 2 0 1 2 0.319
1474 208 2 186 2 2 0 1 1 0 0.306
1475 207 4 327 2 2 2 1 0 1 0.713
1476 208 2 187 3 1 0 0 1 0 0.389
1477 207 4 328 3 3 0 1 0 2 0.617
1478 208 2 188 3 1 0 0 1 0 0.253
1479 207 4 329 0 0 1 1 1 1 0.348
1480 208 2 189 3 0 1 0 1 1 0.29
1481 207 4 330 3 3 3 1 0 2 0.485
1482 208 2 190 0 0 3 2 1 3 0.451
1483 207 4 331 3 3 3 1 0 0 0.381
1484 207 4 332 2 0 1 0 1 1 0.261
1485 208 2 191 1 1 3 1 1 3 0.298
1486 208 2 192 0 2 2 0 1 2 0.261
1487 207 4 333 2 2 3 2 0 2 0.695
1488 208 2 193 2 2 1 2 1 1 0.408
1489 207 4 334 0 1 3 0 0 1 0.344
1490 208 2 194 0 0 0 2 1 0 0.205
1491 207 4 335 3 3 1 2 0 2 0.298
1492 208 2 195 1 1 3 1 1 3 0.38
1493 207 4 336 0 0 1 1 1 1 0.345
1494 208 2 196 3 3 2 2 1 2 0.226
1495 207 4 337 1 2 1 0 0 2 0.594
1496 208 2 197 2 2 1 2 1 1 0.206
1497 207 4 338 0 0 0 2 1 0 0.492
1498 208 2 198 0 0 3 1 1 3 0.412
1499 207 4 339 0 0 2 1 1 2 0.429
1500 208 2 199 2 2 2 2 1 2 0.226
1501 207 4 340 2 1 0 0 0 1 0.436
1502 208 2 200 1 1 1 2 1 1 0.326
1503 207 4 341 1 2 1 0 1 1 0.605
1504 208 2 201 3 2 3 0 1 3 0.424
1505 207 4 342 3 3 0 1 1 0 0.605
1506 208 2 202 1 1 0 1 1 0 0.327
1507 207 4 343 1 1 0 2 0 1 0.835
1508 208 2 203 0 1 0 0 1 0 0.434
1509 207 4 344 2 3 2 0 1 2 0.462
1510 208 2 204 1 1 2 2 1 2 0.342
1511 207 4 345 0 0 0 2 0 1 0.601
1512 208 2 205 0 0 1 1 1 1 0.416
1513 208 2 206 1 0 1 0 1 1 0.231
1514 207 4 346 0 1 2 0 1 2 0.717
1515 208 2 207 2 2 0 2 1 0 0.355
1516 207 4 347 0 1 0 0 0 1 0.745
1517 208 2 208 2 2 2 1 1 2 0.341
1518 207 4 348 2 2 3 1 0 2 0.728
1519 208 2 209 3 3 1 1 1 1 0.519
1520 207 4 349 2 2 2 2 0 3 0.861
1521 208 2 210 1 1 2 2 1 2 0.28
1522 207 4 350 3 3 1 2 0 0 0.989
1523 208 2 211 2 2 0 1 1 0 0.428
1524 207 4 351 2 2 1 2 1 1 0.441
1525 208 2 212 3 3 0 1 1 0 0.323
1526 207 4 352 1 1 0 2 1 0 0.693
1527 208 2 213 0 0 1 1 1 1 0.317
1528 207 4 353 3 3 0 1 0 2 0.497
1529 208 2 214 2 2 2 2 1 2 0.302
1530 208 2 215 1 2 1 0 1 1 0.297
1531 207 4 354 2 2 1 1 1 1 0.585
1532 208 2 216 0 0 0 1 1 0 0.34
1533 207 4 355 0 2 1 0 1 1 0.634
1534 208 2 217 1 0 1 0 1 1 0.286
1535 207 4 356 2 1 2 0 1 2 0.473
1536 208 2 218 3 3 0 2 0 2 0.736
1537 207 4 357 0 2 1 0 1 1 1.197
1538 208 2 219 3 3 2 2 1 2 0.365
1539 207 4 358 0 1 1 0 0 2 0.856
1540 208 2 220 0 0 2 1 1 2 0.422
1541 207 4 359 3 0 1 0 1 1 0.451
1542 208 2 221 0 2 2 0 0 1 0.653
1543 207 4 360 3 0 1 0 1 1 0.68
1544 208 2 222 0 0 1 2 1 1 0.397
1545 207 4 361 2 2 0 2 0 2 0.46
1546 208 2 223 1 0 1 0 1 1 0.221
1547 208 2 224 1 1 0 2 0 2 0.513
1548 207 4 362 3 3 2 2 1 2 1.194
1549 208 2 225 2 0 1 0 1 1 0.382
1550 207 4 363 1 1 3 1 0 1 0.645
1551 208 2 226 3 2 2 0 1 2 0.278
1552 207 4 364 3 3 0 1 0 2 0.551
1553 208 2 227 1 1 0 2 0 2 0.425
1554 207 4 365 2 3 0 0 0 3 0.477
1555 208 2 228 3 3 1 1 1 1 0.395
1556 207 4 366 1 1 1 1 1 1 0.933
1557 208 2 229 1 1 0 1 1 0 0.323
1558 208 2 230 2 2 0 2 1 0 0.331
1559 207 4 367 0 0 3 1 1 3 1.529
1560 208 2 231 1 1 1 2 1 1 0.22
1561 207 4 368 3 3 1 1 1 1 0.472
1562 208 2 232 1 1 0 2 1 0 0.4
1563 207 4 369 3 3 3 2 0 1 0.466
1564 208 2 233 1 2 1 0 1 1 0.312
1565 207 4 370 1 1 1 1 0 2 0.314
1566 208 2 234 2 0 2 0 1 2 0.243
1567 207 4 371 3 3 2 1 1 2 0.632
1568 208 2 235 0 0 1 1 1 1 0.296
1569 207 4 372 1 1 3 1 0 1 0.631
1570 208 2 236 0 0 0 1 1 0 0.308
1571 208 2 237 3 2 3 0 1 3 0.439
1572 207 4 373 2 2 0 1 0 1 1.354
1573 208 2 238 2 2 2 2 1 2 0.347
1574 207 4 374 0 1 0 0 0 2 0.242
1575 208 2 239 0 0 2 1 1 2 0.301
1576 207 4 375 3 3 0 1 0 3 0.738
1577 207 4 376 0 0 1 1 1 1 0.416
1578 207 4 377 1 1 3 1 1 3 0.535
1579 207 4 378 0 0 0 2 1 0 0.431
1580 207 4 379 0 0 1 2 0 0 0.907
1581 207 4 380 3 3 0 1 0 2 0.489
1582 207 4 381 1 1 1 2 0 2 0.839
1583 207 4 382 3 3 0 1 0 3 0.722
1584 207 4 383 0 1 0 0 0 1 0.577
1585 207 4 384 0 0 3 2 0 2 0.827
1586 207 4 385 2 2 3 2 0 1 0.717
1587 207 4 386 3 3 0 1 0 2 0.62
1588 207 4 387 0 2 3 0 0 1 0.511
1589 207 4 388 3 3 3 1 0 0 0.789
1590 207 4 389 2 2 2 1 1 2 0.626
1591 207 4 390 2 2 2 1 1 2 7.265
1592 207 4 391 1 1 0 2 0 1 0.665
1593 207 4 392 3 0 0 0 0 1 0.73
1594 207 4 393 1 0 1 0 1 1 0.441
1595 207 4 394 3 2 3 0 0 2 0.463
1596 207 4 395 3 3 3 1 0 2 0.76
1597 207 4 396 3 3 2 2 0 0 0.444
1598 207 4 397 2 2 0 2 0 1 0.539
1599 207 4 398 3 3 0 2 0 3 1.478
1600 207 4 399 3 2 1 0 1 1 0.491
1601 207 5 400 0 0 0 2 1 0 0.417
1602 207 5 401 3 3 1 2 1 1 0.493
1603 207 5 402 0 2 3 0 1 3 0.508
1604 207 5 403 2 0 0 0 1 0 0.304
1605 207 5 404 0 0 2 1 1 2 0.65
1606 207 5 405 1 1 0 2 0 1 1.374
1607 207 5 406 2 2 1 1 0 2 0.582
1608 207 5 407 3 0 1 0 1 1 0.539
1609 207 5 408 3 3 3 2 0 2 0.963
1610 207 5 409 3 3 2 2 1 2 0.991
1611 207 5 410 0 0 0 2 1 0 0.263
1612 207 5 411 1 1 1 2 0 2 1.481
1613 207 5 412 0 1 0 0 0 2 2.302
1614 208 3 240 0 0 0 2 1 0 0.232
1615 208 3 241 3 2 2 0 1 2 0.262
1616 207 5 413 1 0 3 0 1 3 1.684
1617 208 3 242 3 1 3 0 0 2 0.531
1618 207 5 414 1 1 2 1 0 1 1.341
1619 208 3 243 2 2 3 2 1 3 0.296
1620 207 5 415 0 0 2 2 1 2 0.476
1621 208 3 244 2 2 1 2 1 1 0.321
1622 207 5 416 0 2 0 0 1 0 0.417
1623 208 3 245 2 2 0 1 1 0 0.276
1624 207 5 417 3 3 1 2 1 1 1.149
1625 208 3 246 2 2 3 1 1 3 0.536
1626 207 5 418 3 3 2 1 1 2 0.569
1627 208 3 247 3 1 3 0 1 3 0.41
1628 208 3 248 1 1 1 2 1 1 0.496
1629 207 5 419 1 1 3 2 1 3 0.944
1630 208 3 249 1 2 2 0 1 2 0.22
1631 207 5 420 2 1 1 0 1 1 0.484
1632 208 3 250 1 1 3 1 1 3 0.354
1633 207 5 421 3 3 3 2 0 2 0.414
1634 208 3 251 0 0 1 1 1 1 0.292
1635 207 5 422 3 2 2 0 1 2 0.697
1636 208 3 252 0 0 2 1 1 2 0.327
1637 207 5 423 2 2 0 2 0 1 0.475
1638 208 3 253 0 0 3 1 1 3 0.345
1639 207 5 424 0 0 3 2 1 3 1.385
1640 208 3 254 3 3 3 2 1 3 0.289
1641 207 5 425 2 0 1 0 1 1 0.365
1642 208 3 255 1 1 3 1 0 2 0.549
1643 207 5 426 0 0 1 1 1 1 0.373
1644 208 3 256 1 1 1 1 1 1 0.283
1645 207 5 427 2 3 3 0 0 2 0.461
1646 208 3 257 1 2 3 0 1 3 0.295
1647 207 5 428 1 1 2 2 0 3 0.588
1648 208 3 258 1 2 3 0 1 3 0.242
1649 208 3 259 1 1 1 2 1 1 0.286
1650 207 5 429 2 1 3 0 1 3 0.752
1651 208 3 260 2 2 2 2 1 2 0.216
1652 207 5 430 3 1 2 0 1 2 0.362
1653 208 3 261 0 0 1 2 1 1 0.268
1654 207 5 431 3 3 1 1 1 1 0.435
1655 208 3 262 1 1 3 2 0 2 0.663
1656 207 5 432 0 0 1 1 1 1 0.361
1657 208 3 263 0 0 0 1 1 0 0.385
1658 207 5 433 1 1 2 2 1 2 0.456
1659 208 3 264 0 0 1 1 1 1 0.233
1660 207 5 434 3 3 2 2 0 1 0.467
1661 208 3 265 0 0 1 1 1 1 0.215
1662 207 5 435 2 0 1 0 1 1 0.443
1663 208 3 266 2 2 2 2 1 2 0.468
1664 207 5 436 2 1 0 0 0 2 0.448
1665 208 3 267 1 1 0 2 0 2 0.527
1666 207 5 437 3 3 1 2 0 3 0.576
1667 208 3 268 0 0 2 2 1 2 0.268
1668 207 5 438 3 3 3 1 0 1 0.435
1669 208 3 269 1 1 2 2 0 3 0.549
1670 207 5 439 0 1 1 0 0 2 0.444
1671 208 3 270 3 3 3 2 1 3 0.705
1672 207 5 440 1 2 3 0 1 3 1.013
1673 208 3 271 2 2 0 1 1 0 0.486
1674 207 5 441 0 1 0 0 0 2 0.967
1675 208 3 272 3 0 3 0 0 1 0.594
1676 208 3 273 0 0 1 1 1 1 0.215
1677 207 5 442 2 2 1 2 1 1 1.331
1678 208 3 274 0 0 0 2 1 0 0.315
1679 207 5 443 2 2 1 2 1 1 1.423
1680 208 3 275 0 2 1 0 1 1 0.286
1681 208 3 276 3 3 2 2 1 2 0.28
1682 207 5 444 3 3 3 1 1 3 0.546
1683 208 3 277 0 0 3 2 0 1 0.498
1684 207 5 445 3 3 3 1 1 3 0.516
1685 208 3 278 1 2 1 0 1 1 0.29
1686 207 5 446 0 0 2 2 0 0 1.148
1687 208 3 279 2 2 2 2 1 2 0.3
1688 207 5 447 3 3 2 2 0 3 0.546
1689 208 3 280 1 2 0 0 1 0 0.304
1690 207 5 448 2 2 1 2 1 1 0.398
1691 208 3 281 1 1 0 2 1 0 0.368
1692 207 5 449 3 3 1 2 0 2 0.443
1693 208 3 282 1 1 3 2 0 2 0.383
1694 207 5 450 2 2 3 2 0 1 1.258
1695 208 3 283 2 2 2 1 1 2 0.331
1696 207 5 451 1 1 1 1 0 2 0.566
1697 208 3 284 0 1 1 0 0 3 0.565
1698 207 5 452 0 0 1 2 1 1 0.513
1699 208 3 285 0 1 1 0 1 1 0.547
1700 207 5 453 3 0 2 0 1 2 0.677
1701 208 3 286 1 1 2 1 1 2 0.31
1702 207 5 454 3 2 2 0 0 0 0.514
1703 208 3 287 3 3 2 2 0 3 0.527
1704 207 5 455 1 1 1 1 0 2 0.393
1705 208 3 288 1 1 3 1 0 2 0.446
1706 208 3 289 3 3 0 2 0 3 0.461
1707 207 5 456 1 2 1 0 0 2 0.948
1708 208 3 290 3 2 2 0 0 1 0.478
1709 207 5 457 2 2 3 2 0 1 0.559
1710 208 3 291 3 0 1 0 1 1 0.287
1711 207 5 458 2 2 0 2 1 0 0.448
1712 208 3 292 0 1 1 0 1 1 0.603
1713 207 5 459 1 0 3 0 1 3 0.822
1714 208 3 293 1 1 2 2 1 2 0.305
1715 207 5 460 2 0 3 0 1 3 0.542
1716 208 3 294 2 2 2 1 1 2 0.292
1717 207 5 461 3 3 2 2 0 1 1.238
1718 208 3 295 0 1 3 0 0 2 1.224
1719 207 5 462 1 1 0 1 0 2 1.027
1720 208 3 296 0 0 2 1 0 1 0.245
1721 207 5 463 2 2 3 1 0 1 0.567
1722 208 3 297 3 1 0 0 0 2 0.47
1723 208 3 298 3 1 1 0 1 1 0.295
1724 207 5 464 2 2 1 1 0 3 0.62
1725 208 3 299 2 2 0 1 1 0 0.314
1726 207 5 465 3 3 2 1 0 1 0.671
1727 208 3 300 1 2 2 0 0 1 0.925
1728 207 5 466 1 1 1 2 0 0 0.998
1729 208 3 301 1 2 1 0 0 0 0.918
1730 207 5 467 1 2 2 0 0 1 0.619
1731 208 3 302 2 2 2 2 1 2 0.428
1732 207 5 468 0 0 0 2 1 0 0.323
1733 208 3 303 0 0 1 2 1 1 0.313
1734 207 5 469 3 3 3 2 0 2 0.659
1735 208 3 304 3 3 0 1 2 -1 0.356
1736 207 5 470 1 2 0 0 1 0 0.645
1737 208 3 305 1 1 0 1 0 2 1.143
1738 207 5 471 2 3 1 0 0 0 1.571
1739 208 3 306 1 1 2 2 1 2 0.302
1740 207 5 472 2 2 2 2 1 2 0.442
1741 208 3 307 0 0 3 1 1 3 0.801
1742 207 5 473 2 3 1 0 0 3 1.072
1743 208 3 308 2 0 1 0 0 2 0.738
1744 207 5 474 2 3 3 0 1 3 0.45
1745 208 3 309 0 1 1 0 1 1 0.329
1746 207 5 475 2 2 2 2 1 2 0.525
1747 208 3 310 0 0 1 2 1 1 0.305
1748 207 5 476 2 2 2 2 1 2 0.63
1749 208 3 311 0 0 3 2 1 3 0.426
1750 207 5 477 0 0 0 1 1 0 0.245
1751 208 3 312 0 1 0 0 0 2 0.521
1752 207 5 478 1 1 2 2 0 1 0.472
1753 208 3 313 1 2 0 0 1 0 0.312
1754 207 5 479 2 2 0 2 0 3 1.03
1755 208 3 314 2 0 2 0 1 2 0.331
1756 208 3 315 3 3 0 2 1 0 0.331
1757 208 3 316 0 0 3 2 1 3 0.499
1758 208 3 317 2 2 2 1 1 2 0.271
1759 208 3 318 2 2 2 2 1 2 0.329
1760 208 3 319 1 1 0 1 1 0 0.292
1761 208 4 320 2 2 3 2 1 3 0.42
1762 208 4 321 2 2 0 2 1 0 0.344
1763 208 4 322 1 0 3 0 0 0 0.954
1764 208 4 323 3 3 1 2 1 1 0.4
1765 208 4 324 2 2 3 2 1 3 0.293
1766 208 4 325 2 2 2 1 1 2 0.352
1767 208 4 326 3 3 1 1 1 1 0.442
1768 208 4 327 3 3 3 1 1 3 0.336
1769 208 4 328 3 3 3 1 1 3 0.306
1770 208 4 329 1 2 0 0 1 0 0.357
1771 208 4 330 3 3 2 1 1 2 0.367
1772 208 4 331 1 1 0 2 0 2 0.637
1773 208 4 332 1 1 0 1 1 0 0.32
1774 208 4 333 3 3 3 1 1 3 0.354
1775 208 4 334 2 2 1 2 1 1 0.634
1776 208 4 335 3 1 2 0 1 2 0.321
1777 208 4 336 3 0 0 0 1 0 0.435
1778 208 4 337 1 1 3 2 1 3 0.351
1779 208 4 338 3 2 3 0 1 3 0.393
1780 208 4 339 1 1 0 2 0 3 0.943
1781 208 4 340 0 0 1 2 1 1 0.348
1782 208 4 341 3 3 0 2 1 0 0.388
1783 208 4 342 2 2 1 1 1 1 0.308
1784 208 4 343 1 1 1 2 1 1 0.493
1785 208 4 344 2 2 3 1 1 3 0.337
1786 208 4 345 1 2 3 0 1 3 0.29
1787 208 4 346 0 1 1 0 1 1 0.238
1788 208 4 347 0 0 3 2 1 3 0.433
1789 208 4 348 1 1 1 2 1 1 0.278
1790 208 4 349 3 3 2 1 1 2 0.37
1791 208 4 350 2 0 2 0 1 2 0.29
1792 208 4 351 2 2 1 2 1 1 0.516
1793 208 4 352 2 2 0 2 1 0 0.341
1794 208 4 353 1 1 2 2 1 2 0.245
1795 208 4 354 2 2 2 1 1 2 0.274
1796 208 4 355 1 1 0 1 1 0 0.318
1797 208 4 356 3 3 0 1 1 0 0.329
1798 208 4 357 1 1 3 2 0 2 0.609
1799 208 4 358 1 1 3 1 1 3 0.333
1800 208 4 359 1 1 0 1 1 0 0.336
1801 208 4 360 3 3 1 1 0 0 0.329
1802 208 4 361 1 1 0 2 0 3 0.669
1803 208 4 362 3 3 2 1 1 2 0.255
1804 208 4 363 2 2 0 1 1 0 0.308
1805 208 4 364 1 1 0 1 1 0 0.311
1806 208 4 365 2 2 2 1 1 2 0.234
1807 208 4 366 1 1 1 2 1 1 0.262
1808 208 4 367 1 0 3 0 1 3 0.41
1809 208 4 368 2 0 1 0 0 2 0.289
1810 208 4 369 2 2 0 1 1 0 0.32
1811 208 4 370 3 1 3 0 1 3 0.65
1812 208 4 371 2 2 3 1 1 3 0.401
1813 208 4 372 1 2 0 0 0 2 1.072
1814 208 4 373 2 3 2 0 0 3 0.596
1815 208 4 374 1 1 1 1 1 1 0.248
1816 208 4 375 1 0 1 0 1 1 0.229
1817 208 4 376 0 0 1 2 1 1 0.265
1818 208 4 377 3 3 1 1 1 1 0.254
1819 208 4 378 1 2 0 0 0 1 0.555
1820 208 4 379 3 2 1 0 1 1 0.289
1821 208 4 380 2 2 1 2 1 1 0.215
1822 208 4 381 2 2 1 2 1 1 0.155
1823 208 4 382 2 3 2 0 1 2 0.588
1824 208 4 383 0 0 1 1 1 1 0.244
1825 208 4 384 0 0 1 1 1 1 0.161
1826 208 4 385 0 0 1 2 1 1 0.199
1827 208 4 386 2 2 1 1 1 1 0.214
1828 208 4 387 2 0 1 0 1 1 0.237
1829 208 4 388 1 1 0 1 0 2 0.546
1830 208 4 389 3 3 2 1 1 2 0.288
1831 208 4 390 0 1 1 0 0 2 0.556
1832 208 4 391 2 2 2 2 1 2 0.264
1833 208 4 392 3 3 0 2 1 0 0.354
1834 208 4 393 2 2 1 1 1 1 0.212
1835 208 4 394 3 1 2 0 1 2 0.33
1836 208 4 395 3 1 2 0 1 2 0.189
1837 208 4 396 1 1 3 1 1 3 0.356
1838 208 4 397 0 0 0 1 1 0 0.789
1839 208 4 398 3 0 1 0 1 1 0.295
1840 208 4 399 2 2 0 1 1 0 0.322
1841 208 5 400 2 2 0 1 1 0 0.282
1842 208 5 401 3 2 0 0 1 0 0.31
1843 208 5 402 3 3 0 2 1 0 0.287
1844 208 5 403 3 2 1 0 1 1 0.611
1845 208 5 404 0 1 1 0 1 1 0.266
1846 208 5 405 2 2 0 1 1 0 0.279
1847 208 5 406 1 1 3 2 0 1 0.449
1848 208 5 407 3 3 0 2 0 2 0.489
1849 208 5 408 2 0 1 0 1 1 0.265
1850 208 5 409 0 2 1 0 1 1 0.566
1851 208 5 410 2 3 2 0 0 3 0.656
1852 208 5 411 3 3 2 1 1 2 0.29
1853 208 5 412 3 0 1 0 1 1 0.261
1854 208 5 413 0 0 2 1 0 1 0.25
1855 208 5 414 3 0 0 0 1 0 0.387
1856 208 5 415 3 2 1 0 1 1 0.252
1857 208 5 416 0 1 3 0 1 3 0.408
1858 208 5 417 0 0 1 1 1 1 0.224
1859 208 5 418 1 1 3 2 0 2 0.676
1860 208 5 419 1 2 0 0 1 0 0.3
1861 208 5 420 3 1 1 0 0 3 0.671
1862 208 5 421 0 0 1 2 1 1 0.519
1863 208 5 422 2 3 1 0 1 1 0.378
1864 208 5 423 1 1 1 1 1 1 0.347
1865 208 5 424 3 3 1 2 1 1 0.258
1866 208 5 425 1 2 1 0 1 1 0.239
1867 208 5 426 3 0 1 0 0 0 0.533
1868 208 5 427 3 3 3 2 1 3 0.321
1869 208 5 428 3 3 1 2 1 1 0.306
1870 208 5 429 1 1 3 1 0 2 0.205
1871 208 5 430 3 3 3 2 1 3 0.397
1872 208 5 431 2 0 1 0 1 1 0.269
1873 208 5 432 3 1 2 0 1 2 0.473
1874 208 5 433 3 3 0 2 0 3 0.548
1875 208 5 434 0 0 0 2 1 0 0.32
1876 208 5 435 1 1 0 2 0 2 0.601
1877 208 5 436 3 3 3 2 1 3 0.315
1878 208 5 437 2 2 2 2 1 2 0.54
1879 208 5 438 1 1 3 2 1 3 0.444
1880 208 5 439 0 0 2 1 1 2 0.306
1881 208 5 440 1 1 2 1 1 2 0.301
1882 208 5 441 1 1 0 2 1 0 0.414
1883 208 5 442 1 1 3 1 1 3 0.382
1884 208 5 443 1 1 0 1 1 0 0.294
1885 208 5 444 3 3 0 1 1 0 0.282
1886 208 5 445 3 3 3 2 1 3 0.449
1887 208 5 446 3 3 3 1 1 3 0.256
1888 208 5 447 3 3 2 2 1 2 0.314
1889 208 5 448 1 1 1 2 0 2 0.507
1890 208 5 449 3 3 0 1 1 0 0.315
1891 208 5 450 0 0 1 1 1 1 0.286
1892 208 5 451 1 0 3 0 1 3 0.426
1893 208 5 452 0 1 2 0 0 1 0.753
1894 208 5 453 2 2 2 2 1 2 0.325
1895 208 5 454 3 2 1 0 1 1 0.24
1896 208 5 455 3 1 2 0 1 2 0.861
1897 208 5 456 3 3 3 2 1 3 0.37
1898 208 5 457 1 0 2 0 1 2 0.443
1899 208 5 458 3 3 3 1 1 3 0.305
1900 208 5 459 0 0 1 1 1 1 0.268
1901 208 5 460 0 0 3 2 1 3 0.319
1902 208 5 461 1 1 0 1 1 0 0.289
1903 208 5 462 3 3 1 1 1 1 0.309
1904 208 5 463 0 0 1 1 1 1 0.216
1905 208 5 464 1 1 2 2 1 2 0.405
1906 208 5 465 1 2 2 0 1 2 0.276
1907 208 5 466 3 2 2 0 1 2 0.264
1908 208 5 467 0 2 1 0 1 1 0.285
1909 208 5 468 3 2 0 0 1 0 0.305
1910 208 5 469 2 2 3 1 1 3 0.484
1911 208 5 470 2 1 1 0 1 1 0.281
1912 208 5 471 2 2 0 1 1 0 0.301
1913 208 5 472 3 3 2 1 1 2 0.336
1914 208 5 473 3 3 2 1 1 2 0.234
1915 208 5 474 3 3 2 2 1 2 0.302
1916 208 5 475 0 0 0 1 1 0 0.281
1917 208 5 476 1 1 2 1 1 2 0.278
1918 208 5 477 0 0 1 2 0 0 0.568
1919 208 5 478 2 2 2 1 1 2 0.261
1920 208 5 479 3 3 3 1 1 3 0.234
1921 211 0 0 0 0 2 1 1 2 0.774
1922 211 0 1 3 3 1 2 0 2 1.284
1923 211 0 2 3 3 1 2 0 2 0.947
1924 211 0 3 0 0 1 1 1 1 0.664
1925 211 0 4 2 2 0 2 1 0 0.689
1926 211 0 5 1 2 0 0 0 1 0.868
1927 211 0 6 0 0 2 2 1 2 0.89
1928 211 0 7 1 0 2 0 0 3 1.542
1929 211 0 8 1 1 3 1 1 3 1.174
1930 211 0 9 3 2 2 0 0 1 1.152
1931 211 0 10 2 3 0 0 0 3 0.774
1932 211 0 11 3 3 0 1 1 0 0.681
1933 211 0 12 1 1 2 1 1 2 0.717
1934 211 0 13 1 2 2 0 1 2 1.336
1935 211 0 14 3 3 3 1 1 3 0.499
1936 211 0 15 2 2 2 2 0 1 0.842
1937 211 0 16 1 2 3 0 1 3 1.563
1938 211 0 17 0 1 2 0 0 3 0.871
1939 211 0 18 2 1 3 0 1 3 0.591
1940 211 0 19 1 1 2 2 1 2 0.971
1941 211 0 20 0 0 3 1 1 3 0.452
1942 211 0 21 1 2 2 0 1 2 1.456
1943 211 0 22 3 3 1 1 1 1 0.407
1944 211 0 23 1 0 0 0 0 1 1.012
1945 211 0 24 2 3 1 0 1 1 0.847
1946 211 0 25 0 2 0 0 0 1 0.805
1947 211 0 26 1 2 2 0 1 2 0.567
1948 211 0 27 0 0 3 2 1 3 1.117
1949 211 0 28 0 1 3 0 0 0 1.456
1950 211 0 29 2 2 2 2 1 2 0.817
1951 211 0 30 2 0 3 0 1 3 0.671
1952 211 0 31 1 1 2 2 0 1 1.353
1953 211 0 32 1 1 2 1 1 2 0.4
1954 211 0 33 0 0 3 2 1 3 1.851
1955 211 0 34 3 3 0 1 1 0 0.893
1956 211 0 35 3 2 0 0 0 2 0.792
1957 211 0 36 2 1 3 0 1 3 0.779
1958 211 0 37 2 1 0 0 1 0 0.716
1959 211 0 38 2 3 3 0 0 2 0.741
1960 211 0 39 0 0 2 1 1 2 0.913
1961 211 0 40 3 0 0 0 1 0 0.981
1962 211 0 41 2 2 0 2 0 2 0.531
1963 211 0 42 0 1 1 0 1 1 0.775
1964 211 0 43 1 1 1 1 1 1 0.375
1965 211 0 44 2 2 2 1 1 2 0.486
1966 211 0 45 2 2 0 2 1 0 0.526
1967 211 0 46 2 3 3 0 1 3 1.151
1968 211 0 47 2 1 3 0 2 -1 0.753
1969 211 0 48 1 1 2 2 1 2 0.939
1970 211 0 49 0 0 0 1 1 0 0.765
1971 211 0 50 3 3 1 2 1 1 0.795
1972 211 0 51 2 2 2 1 1 2 1.034
1973 211 0 52 3 3 2 2 1 2 1.039
1974 211 0 53 0 0 1 2 1 1 0.691
1975 211 0 54 0 0 1 1 0 2 1.134
1976 211 0 55 1 2 3 0 1 3 1.141
1977 211 0 56 3 3 2 1 1 2 0.896
1978 211 0 57 2 2 0 2 1 0 0.625
1979 211 0 58 2 2 2 1 1 2 0.886
1980 211 0 59 3 3 0 2 1 0 0.648
1981 211 0 60 0 2 2 0 0 1 1.26
1982 211 0 61 0 2 0 0 0 2 1.11
1983 211 0 62 1 1 3 1 1 3 1.046
1984 211 0 63 1 1 0 1 0 3 0.948
1985 211 0 64 1 1 2 1 1 2 0.601
1986 211 0 65 0 1 0 0 2 -1 2.247
1987 211 0 66 2 1 3 0 1 3 1.362
1988 211 0 67 1 1 2 1 1 2 1.173
1989 211 0 68 0 0 1 1 1 1 0.647
1990 211 0 69 0 0 1 1 1 1 0.651
1991 211 0 70 2 2 0 2 1 0 0.733
1992 211 0 71 2 0 2 0 1 2 1.087
1993 211 0 72 1 1 2 2 1 2 0.778
1994 211 0 73 3 1 2 0 0 1 0.898
1995 211 0 74 3 3 3 1 0 2 0.969
1996 211 0 75 0 0 2 2 1 2 0.779
1997 211 0 76 2 3 2 0 1 2 1.171
1998 211 0 77 1 0 1 0 1 1 0.837
1999 211 0 78 0 0 3 2 1 3 1.632
2000 211 0 79 1 2 0 0 0 2 1.098
2001 211 1 80 2 2 2 1 1 2 0.578
2002 211 1 81 3 3 1 1 1 1 0.609
2003 211 1 82 1 0 3 0 0 0 0.983
2004 211 1 83 3 3 2 1 1 2 0.642
2005 211 1 84 2 2 2 2 1 2 0.645
2006 211 1 85 2 2 0 1 0 1 0.89
2007 211 1 86 0 0 3 1 1 3 0.593
2008 211 1 87 0 0 3 1 1 3 0.496
2009 211 1 88 3 3 3 1 1 3 0.626
2010 211 1 89 2 2 3 1 0 2 0.903
2011 211 1 90 0 0 1 2 0 0 1.276
2012 211 1 91 2 1 0 0 1 0 0.822
2013 211 1 92 0 0 1 2 1 1 0.602
2014 211 1 93 1 1 3 2 1 3 0.71
2015 211 1 94 2 2 0 2 1 0 0.67
2016 211 1 95 1 1 1 1 1 1 0.634
2017 211 1 96 2 0 1 0 1 1 0.67
2018 211 1 97 2 0 2 0 1 2 0.65
2019 211 1 98 2 2 0 2 1 0 0.916
2020 211 1 99 0 0 2 2 1 2 0.733
2021 211 1 100 2 2 1 2 0 3 1.229
2022 211 1 101 2 3 3 0 1 3 0.671
2023 211 1 102 3 3 1 1 1 1 0.619
2024 211 1 103 0 0 1 2 1 1 0.758
2025 211 1 104 0 0 1 2 1 1 0.581
2026 211 1 105 2 2 1 1 1 1 0.596
2027 211 1 106 0 0 1 2 1 1 0.704
2028 211 1 107 2 0 2 0 1 2 1.459
2029 211 1 108 1 1 3 2 1 3 0.704
2030 211 1 109 0 0 2 1 1 2 0.843
2031 211 1 110 0 2 2 0 0 0 1.272
2032 211 1 111 1 1 2 2 0 3 0.848
2033 211 1 112 2 2 1 2 1 1 1.221
2034 211 1 113 0 1 3 0 0 2 0.861
2035 211 1 114 2 2 1 2 1 1 1.116
2036 211 1 115 3 1 1 0 0 2 0.92
2037 211 1 116 1 1 1 2 1 1 0.716
2038 211 1 117 2 2 1 2 0 2 0.78
2039 211 1 118 3 0 1 0 1 1 0.768
2040 211 1 119 3 3 2 2 1 2 0.845
2041 211 1 120 3 3 2 1 1 2 0.235
2042 211 1 121 1 1 3 1 1 3 0.51
2043 211 1 122 2 2 0 2 1 0 0.614
2044 211 1 123 1 1 1 1 1 1 0.619
2045 211 1 124 0 0 2 2 1 2 0.895
2046 211 1 125 3 3 3 2 1 3 0.881
2047 211 1 126 1 2 1 0 1 1 0.98
2048 211 1 127 3 3 1 1 1 1 0.621
2049 211 1 128 1 1 1 1 1 1 0.706
2050 211 1 129 0 0 2 2 1 2 0.882
2051 211 1 130 1 1 1 2 0 0 2.084
2052 211 1 131 0 0 0 2 1 0 0.815
2053 211 1 132 2 2 1 1 1 1 0.749
2054 211 1 133 0 2 3 0 0 2 1.102
2055 211 1 134 0 0 2 1 1 2 0.574
2056 211 1 135 0 0 0 2 1 0 0.731
2057 211 1 136 0 0 3 2 1 3 1.387
2058 211 1 137 1 1 3 2 1 3 0.643
2059 211 1 138 0 2 3 0 1 3 0.967
2060 211 1 139 1 1 1 2 1 1 0.646
2061 211 1 140 2 0 1 0 0 0 1.083
2062 211 1 141 3 2 0 0 0 1 1.123
2063 211 1 142 3 3 1 1 1 1 0.618
2064 211 1 143 2 0 2 0 1 2 0.864
2065 211 1 144 1 1 2 1 0 0 1.661
2066 211 1 145 0 0 1 2 1 1 0.631
2067 211 1 146 2 2 3 1 1 3 0.507
2068 211 1 147 0 0 3 2 0 0 2.066
2069 211 1 148 3 2 1 0 0 2 0.991
2070 211 1 149 2 2 0 2 0 3 0.521
2071 211 1 150 1 1 3 1 0 2 0.734
2072 211 1 151 2 1 2 0 1 2 0.85
2073 211 1 152 0 0 2 1 1 2 0.552
2074 211 1 153 0 2 3 0 1 3 0.832
2075 211 1 154 1 1 0 2 1 0 1.172
2076 211 1 155 0 0 3 2 1 3 0.636
2077 211 1 156 3 3 2 2 0 1 1.286
2078 211 1 157 3 1 1 0 1 1 0.791
2079 211 1 158 2 0 2 0 1 2 0.775
2080 211 1 159 3 3 2 2 1 2 0.621
2081 211 2 160 2 2 0 1 1 0 0.722
2082 211 2 161 0 0 2 2 1 2 0.874
2083 211 2 162 0 0 0 1 1 0 0.591
2084 211 2 163 2 2 2 1 1 2 0.733
2085 211 2 164 0 0 0 2 1 0 0.669
2086 211 2 165 0 0 0 2 1 0 0.454
2087 211 2 166 3 1 0 0 1 0 0.658
2088 211 2 167 1 1 0 2 1 0 0.692
2089 211 2 168 1 2 3 0 0 2 0.671
2090 211 2 169 1 1 3 1 0 1 0.838
2091 211 2 170 3 3 3 2 1 3 0.773
2092 211 2 171 1 1 3 1 0 0 1.245
2093 211 2 172 2 2 0 1 0 2 0.68
2094 211 2 173 0 0 0 2 1 0 0.637
2095 211 2 174 3 2 3 0 0 2 1.17
2096 211 2 175 2 3 0 0 0 3 0.647
2097 211 2 176 1 2 3 0 0 2 0.56
2098 211 2 177 3 3 0 1 0 2 0.923
2099 211 2 178 3 3 1 2 1 1 0.631
2100 211 2 179 3 3 3 2 1 3 0.591
2101 211 2 180 3 3 0 2 1 0 0.667
2102 211 2 181 1 1 1 1 0 2 0.975
2103 211 2 182 1 1 1 1 1 1 0.595
2104 211 2 183 3 3 0 1 1 0 0.506
2105 211 2 184 2 2 3 1 1 3 0.531
2106 211 2 185 0 0 1 1 1 1 0.652
2107 211 2 186 0 0 1 1 1 1 0.544
2108 211 2 187 0 0 1 1 1 1 0.441
2109 211 2 188 2 2 2 1 1 2 0.756
2110 211 2 189 2 0 3 0 1 3 1.181
2111 211 2 190 2 2 0 2 0 2 0.94
2112 211 2 191 1 2 0 0 0 2 0.77
2113 211 2 192 3 3 3 1 1 3 0.661
2114 211 2 193 0 0 3 1 1 3 0.53
2115 211 2 194 1 0 3 0 0 2 0.794
2116 211 2 195 2 2 0 1 1 0 0.597
2117 211 2 196 3 3 2 2 1 2 0.898
2118 211 2 197 3 3 3 1 1 3 0.606
2119 211 2 198 0 0 2 2 0 1 1.138
2120 211 2 199 1 1 1 2 1 1 0.966
2121 211 2 200 3 3 2 1 1 2 0.6
2122 211 2 201 2 2 3 2 1 3 0.907
2123 211 2 202 0 0 3 1 1 3 0.639
2124 211 2 203 1 1 1 2 1 1 0.601
2125 211 2 204 0 0 1 2 1 1 0.629
2126 211 2 205 0 1 1 0 0 2 1.163
2127 211 2 206 3 3 3 2 1 3 0.598
2128 211 2 207 0 1 1 0 1 1 0.676
2129 211 2 208 2 2 2 2 1 2 0.766
2130 211 2 209 2 2 1 2 1 1 0.492
2131 211 2 210 3 0 3 0 0 1 0.807
2132 211 2 211 0 0 2 1 1 2 0.601
2133 211 2 212 3 3 1 1 1 1 0.543
2134 211 2 213 3 3 3 1 1 3 0.799
2135 211 2 214 3 3 1 2 1 1 1.988
2136 211 2 215 1 1 3 2 1 3 1.166
2137 211 2 216 3 3 1 2 0 2 1.134
2138 211 2 217 1 1 2 1 1 2 1.485
2139 211 2 218 0 0 2 1 1 2 0.675
2140 211 2 219 3 2 2 0 0 1 1.215
2141 211 2 220 0 0 0 2 1 0 0.608
2142 211 2 221 1 1 1 2 1 1 0.58
2143 211 2 222 1 2 1 0 1 1 0.611
2144 211 2 223 0 0 1 1 1 1 0.52
2145 211 2 224 3 0 1 0 1 1 0.945
2146 211 2 225 1 1 3 1 1 3 0.899
2147 211 2 226 1 1 1 1 1 1 0.999
2148 211 2 227 0 0 2 2 1 2 0.597
2149 211 2 228 2 0 3 0 0 2 0.923
2150 211 2 229 3 3 0 1 0 2 1.194
2151 211 2 230 0 0 0 2 1 0 0.916
2152 211 2 231 3 3 2 1 0 0 0.8
2153 211 2 232 2 0 0 0 1 0 0.61
2154 211 2 233 1 1 3 2 0 1 0.822
2155 211 2 234 2 2 0 1 1 0 0.624
2156 211 2 235 0 0 2 2 1 2 0.787
2157 211 2 236 0 0 2 2 1 2 0.752
2158 211 2 237 0 2 1 0 0 2 0.777
2159 211 2 238 2 2 0 2 0 2 0.602
2160 211 2 239 2 2 0 2 1 0 0.594
2161 211 3 240 1 1 3 2 0 2 0.675
2162 211 3 241 2 2 0 1 1 0 0.506
2163 211 3 242 1 1 0 2 1 0 0.649
2164 211 3 243 1 1 3 1 1 3 0.878
2165 211 3 244 2 2 2 1 1 2 0.626
2166 211 3 245 1 1 2 2 1 2 0.637
2167 211 3 246 2 2 0 1 1 0 0.482
2168 211 3 247 0 0 0 1 1 0 0.485
2169 211 3 248 0 0 2 2 1 2 1.157
2170 211 3 249 1 1 0 1 1 0 0.519
2171 211 3 250 1 1 2 2 1 2 0.758
2172 211 3 251 1 2 3 0 0 2 1.054
2173 211 3 252 3 0 2 0 0 1 0.824
2174 211 3 253 2 2 0 1 1 0 0.538
2175 211 3 254 0 1 2 0 1 2 0.746
2176 211 3 255 2 2 2 2 1 2 0.569
2177 211 3 256 2 3 2 0 0 3 0.624
2178 211 3 257 1 1 2 2 1 2 0.791
2179 211 3 258 1 1 1 1 1 1 0.646
2180 211 3 259 3 2 0 0 0 2 0.731
2181 211 3 260 2 2 3 1 1 3 0.568
2182 211 3 261 3 3 0 2 1 0 0.71
2183 211 3 262 0 0 2 1 1 2 0.672
2184 211 3 263 3 3 1 1 1 1 0.636
2185 211 3 264 3 2 2 0 1 2 0.584
2186 211 3 265 3 2 3 0 0 2 0.551
2187 211 3 266 2 2 1 1 1 1 0.499
2188 211 3 267 2 1 2 0 1 2 0.541
2189 211 3 268 1 1 3 1 1 3 0.469
2190 211 3 269 1 1 3 2 1 3 0.294
2191 211 3 270 0 2 2 0 1 2 0.631
2192 211 3 271 3 3 2 1 1 2 0.444
2193 211 3 272 0 2 1 0 1 1 0.728
2194 211 3 273 3 3 3 1 1 3 0.346
2195 211 3 274 2 2 3 2 1 3 0.295
2196 211 3 275 0 0 2 1 1 2 0.737
2197 211 3 276 3 3 0 1 1 0 0.65
2198 211 3 277 3 3 3 2 1 3 0.532
2199 211 3 278 2 2 3 2 1 3 0.267
2200 211 3 279 1 0 3 0 1 3 1.029
2201 211 3 280 1 1 0 2 1 0 0.641
2202 211 3 281 3 3 3 1 1 3 0.269
2203 211 3 282 3 3 1 1 1 1 0.687
2204 211 3 283 0 0 2 2 1 2 0.68
2205 211 3 284 1 1 2 2 1 2 0.417
2206 211 3 285 2 2 1 1 1 1 0.614
2207 211 3 286 2 1 3 0 1 3 0.396
2208 211 3 287 2 1 1 0 1 1 0.698
2209 211 3 288 3 3 0 1 0 3 1.229
2210 211 3 289 2 1 0 0 0 1 1.032
2211 211 3 290 2 2 0 2 1 0 0.945
2212 211 3 291 3 3 0 1 0 3 0.795
2213 211 3 292 1 2 2 0 1 2 0.606
2214 211 3 293 0 0 2 2 1 2 0.418
2215 211 3 294 2 3 2 0 0 3 0.686
2216 211 3 295 1 2 3 0 0 1 0.861
2217 211 3 296 2 2 3 1 1 3 0.517
2218 211 3 297 2 2 1 1 1 1 0.679
2219 211 3 298 1 0 1 0 1 1 0.722
2220 211 3 299 1 1 1 2 1 1 0.658
2221 211 3 300 3 0 0 0 1 0 1.006
2222 211 3 301 0 1 1 0 1 1 0.766
2223 211 3 302 3 0 2 0 1 2 0.774
2224 211 3 303 0 0 1 1 1 1 0.518
2225 211 3 304 2 2 1 1 1 1 0.559
2226 211 3 305 0 0 3 2 0 2 0.701
2227 211 3 306 2 0 2 0 1 2 1.042
2228 211 3 307 0 2 2 0 1 2 0.505
2229 211 3 308 0 2 2 0 1 2 0.522
2230 211 3 309 2 3 2 0 0 3 0.547
2231 211 3 310 2 3 3 0 1 3 0.455
2232 211 3 311 1 1 2 1 1 2 0.426
2233 211 3 312 2 2 1 1 1 1 0.575
2234 211 3 313 2 1 2 0 1 2 0.638
2235 211 3 314 2 1 1 0 0 2 0.435
2236 211 3 315 2 2 1 2 1 1 0.913
2237 211 3 316 3 2 0 0 0 2 0.524
2238 211 3 317 0 2 2 0 1 2 0.945
2239 211 3 318 0 2 2 0 1 2 0.507
2240 211 3 319 2 2 3 1 1 3 0.628
2241 211 4 320 2 2 2 2 1 2 2.543
2242 211 4 321 0 0 1 1 1 1 0.648
2243 211 4 322 1 2 1 0 0 2 0.893
2244 211 4 323 3 3 0 1 1 0 0.611
2245 211 4 324 3 3 2 1 1 2 0.713
2246 211 4 325 2 0 0 0 0 1 1.004
2247 211 4 326 3 3 1 2 1 1 0.661
2248 211 4 327 1 1 3 1 0 2 0.377
2249 211 4 328 1 1 0 2 1 0 0.665
2250 211 4 329 0 1 3 0 0 1 0.772
2251 211 4 330 0 0 2 1 1 2 0.608
2252 211 4 331 3 3 3 1 1 3 0.566
2253 211 4 332 2 2 3 1 0 2 0.453
2254 211 4 333 1 1 0 1 1 0 0.741
2255 211 4 334 2 1 0 0 0 2 0.774
2256 211 4 335 1 1 1 2 1 1 0.615
2257 211 4 336 1 1 3 2 1 3 0.619
2258 211 4 337 1 1 2 1 1 2 0.368
2259 211 4 338 1 1 1 1 1 1 0.583
2260 211 4 339 3 3 1 1 1 1 0.662
2261 211 4 340 0 0 1 2 1 1 0.616
2262 211 4 341 2 2 1 2 1 1 0.828
2263 211 4 342 1 1 3 2 1 3 0.592
2264 211 4 343 0 0 1 1 1 1 0.471
2265 211 4 344 1 1 2 2 1 2 0.463
2266 211 4 345 1 0 2 0 0 1 0.859
2267 211 4 346 0 0 3 1 1 3 0.467
2268 211 4 347 0 2 3 0 0 2 0.863
2269 211 4 348 2 1 2 0 1 2 0.599
2270 211 4 349 3 3 1 2 1 1 0.667
2271 211 4 350 1 1 1 1 1 1 0.559
2272 211 4 351 3 3 1 2 1 1 0.62
2273 211 4 352 0 0 2 1 1 2 0.506
2274 211 4 353 0 0 2 2 1 2 0.497
2275 211 4 354 3 3 1 2 0 2 0.489
2276 211 4 355 1 1 1 1 1 1 0.574
2277 211 4 356 0 0 3 2 0 0 0.819
2278 211 4 357 2 2 1 1 1 1 1.165
2279 211 4 358 1 0 3 0 1 3 0.567
2280 211 4 359 3 3 1 2 1 1 0.58
2281 211 4 360 3 3 3 1 1 3 0.459
2282 211 4 361 2 0 3 0 0 2 0.631
2283 211 4 362 0 1 1 0 0 2 0.775
2284 211 4 363 1 1 3 2 1 3 0.513
2285 211 4 364 2 0 0 0 0 1 0.97
2286 211 4 365 3 3 3 2 1 3 0.509
2287 211 4 366 2 2 0 2 0 2 0.484
2288 211 4 367 1 1 2 1 1 2 0.706
2289 211 4 368 3 0 1 0 0 2 0.516
2290 211 4 369 1 2 2 0 0 1 0.857
2291 211 4 370 0 0 3 1 1 3 0.322
2292 211 4 371 1 1 2 1 1 2 0.41
2293 211 4 372 0 0 2 2 1 2 0.429
2294 211 4 373 2 2 1 2 0 2 0.575
2295 211 4 374 1 1 0 1 1 0 0.714
2296 211 4 375 1 1 1 2 0 2 1.178
2297 211 4 376 1 1 2 2 1 2 0.614
2298 211 4 377 1 0 0 0 0 1 0.756
2299 211 4 378 1 2 0 0 0 2 0.488
2300 211 4 379 2 2 2 2 1 2 0.555
2301 211 4 380 2 2 0 2 1 0 0.737
2302 211 4 381 1 1 2 2 1 2 0.448
2303 211 4 382 0 1 0 0 1 0 0.684
2304 211 4 383 3 3 2 1 1 2 0.575
2305 211 4 384 3 3 1 1 1 1 0.622
2306 211 4 385 0 0 3 2 0 2 0.617
2307 211 4 386 3 3 1 2 0 2 0.345
2308 211 4 387 2 0 2 0 0 1 0.772
2309 211 4 388 1 1 1 2 1 1 0.589
2310 211 4 389 0 2 3 0 0 0 0.956
2311 211 4 390 2 2 3 1 0 1 0.585
2312 211 4 391 1 1 0 2 1 0 0.649
2313 211 4 392 3 3 1 2 0 2 0.523
2314 211 4 393 1 1 1 2 1 1 0.694
2315 211 4 394 0 0 3 1 0 2 0.729
2316 211 4 395 0 0 0 1 1 0 0.606
2317 211 4 396 2 2 0 2 0 2 1.042
2318 211 4 397 3 3 2 1 1 2 0.388
2319 211 4 398 2 2 2 1 1 2 0.61
2320 211 4 399 2 2 0 1 1 0 0.583
2321 211 5 400 2 2 2 1 1 2 0.683
2322 211 5 401 0 1 1 0 0 2 0.566
2323 211 5 402 3 3 0 1 1 0 0.537
2324 211 5 403 3 3 0 2 0 2 0.623
2325 211 5 404 2 1 2 0 1 2 0.504
2326 211 5 405 3 3 0 2 1 0 0.664
2327 211 5 406 1 1 2 1 1 2 0.308
2328 211 5 407 0 1 2 0 0 3 0.573
2329 211 5 408 3 3 0 2 1 0 0.709
2330 211 5 409 1 1 0 2 1 0 0.677
2331 211 5 410 0 0 2 1 1 2 0.873
2332 211 5 411 1 1 2 2 1 2 0.355
2333 211 5 412 1 1 1 2 1 1 0.656
2334 211 5 413 1 1 3 1 0 2 0.324
2335 211 5 414 2 2 1 1 1 1 0.608
2336 211 5 415 3 3 1 2 0 3 0.476
2337 211 5 416 3 3 2 1 1 2 0.498
2338 211 5 417 2 2 3 2 0 1 0.986
2339 211 5 418 1 1 2 1 1 2 0.709
2340 211 5 419 0 0 3 1 1 3 0.376
2341 211 5 420 2 2 2 1 1 2 0.438
2342 211 5 421 1 1 1 1 1 1 0.65
2343 211 5 422 2 2 3 1 1 3 0.582
2344 211 5 423 1 1 3 1 1 3 0.405
2345 211 5 424 1 2 2 0 0 3 0.562
2346 211 5 425 3 3 2 2 0 3 0.788
2347 211 5 426 3 3 3 1 1 3 0.27
2348 211 5 427 1 2 2 0 1 2 0.736
2349 211 5 428 0 1 0 0 1 0 0.786
2350 211 5 429 0 0 2 2 0 1 0.64
2351 211 5 430 3 3 2 1 1 2 0.552
2352 211 5 431 3 3 2 1 1 2 0.304
2353 211 5 432 0 2 3 0 1 3 0.648
2354 211 5 433 3 0 0 0 0 1 0.829
2355 211 5 434 1 1 0 2 1 0 0.693
2356 211 5 435 0 0 1 1 1 1 0.656
2357 211 5 436 1 0 1 0 0 2 0.708
2358 211 5 437 2 2 0 2 0 2 0.592
2359 211 5 438 3 1 1 0 1 1 0.682
2360 211 5 439 3 3 1 1 1 1 0.597
2361 211 5 440 1 2 3 0 0 2 0.644
2362 211 5 441 2 0 0 0 1 0 0.772
2363 211 5 442 1 0 3 0 1 3 0.542
2364 211 5 443 3 3 2 2 1 2 0.484
2365 211 5 444 0 0 2 1 1 2 0.534
2366 211 5 445 1 2 0 0 0 1 0.863
2367 211 5 446 3 3 2 2 1 2 0.421
2368 211 5 447 1 2 2 0 1 2 0.642
2369 211 5 448 0 1 1 0 1 1 0.91
2370 211 5 449 3 3 0 2 1 0 0.839
2371 211 5 450 0 0 3 2 1 3 0.795
2372 211 5 451 3 3 1 1 1 1 0.626
2373 211 5 452 2 2 0 1 0 2 0.759
2374 211 5 453 3 3 1 1 1 1 0.555
2375 211 5 454 2 0 0 0 0 2 0.571
2376 211 5 455 3 3 1 2 1 1 0.523
2377 211 5 456 3 3 2 1 0 3 0.564
2378 211 5 457 0 0 2 2 1 2 0.749
2379 211 5 458 1 1 0 2 1 0 0.612
2380 211 5 459 0 0 2 2 1 2 0.712
2381 211 5 460 0 0 0 1 1 0 0.666
2382 211 5 461 0 0 3 2 0 0 0.772
2383 211 5 462 0 1 3 0 0 1 0.695
2384 211 5 463 2 2 1 1 1 1 0.558
2385 211 5 464 3 3 0 2 1 0 0.587
2386 211 5 465 3 3 2 2 1 2 0.48
2387 211 5 466 1 2 2 0 1 2 0.329
2388 211 5 467 1 2 3 0 1 3 0.745
2389 211 5 468 2 2 3 2 1 3 0.376
2390 211 5 469 0 2 0 0 0 3 0.382
2391 211 5 470 2 2 3 1 1 3 0.36
2392 211 5 471 0 1 3 0 0 1 0.591
2393 211 5 472 1 1 2 2 1 2 0.687
2394 211 5 473 0 0 2 2 1 2 1.144
2395 211 5 474 1 1 1 2 0 2 0.448
2396 211 5 475 0 1 1 0 1 1 0.591
2397 211 5 476 3 3 2 2 1 2 0.42
2398 211 5 477 0 0 0 1 1 0 0.808
2399 211 5 478 0 1 0 0 0 2 0.927
2400 211 5 479 3 3 0 1 1 0 0.637
2401 214 0 0 2 2 3 1 1 3 0.925
2402 214 0 1 0 0 0 1 1 0 0.689
2403 214 0 2 0 0 0 1 1 0 0.558
2404 214 0 3 3 1 3 0 1 3 0.799
2405 214 0 4 3 3 2 1 1 2 0.776
2406 214 0 5 2 2 0 2 1 0 1.112
2407 214 0 6 2 2 2 1 1 2 0.982
2408 214 0 7 3 3 2 1 1 2 0.665
2409 214 0 8 1 1 2 2 1 2 0.717
2410 214 0 9 0 1 2 0 1 2 1.194
2411 214 0 10 3 2 1 0 0 2 2.293
2412 214 0 11 1 0 3 0 1 3 0.844
2413 214 0 12 3 3 2 2 1 2 0.73
2414 214 0 13 3 3 3 2 1 3 0.7
2415 214 0 14 3 3 1 1 1 1 0.634
2416 214 0 15 0 0 2 2 1 2 0.671
2417 214 0 16 3 3 3 2 1 3 0.707
2418 214 0 17 0 0 1 2 1 1 0.662
2419 214 0 18 2 2 1 2 1 1 0.554
2420 214 0 19 3 0 1 0 1 1 0.717
2421 214 0 20 1 1 1 1 1 1 1.017
2422 214 0 21 0 0 2 2 1 2 0.512
2423 214 0 22 3 3 2 1 1 2 0.532
2424 214 0 23 1 1 2 1 1 2 0.617
2425 214 0 24 0 2 2 0 0 1 1.033
2426 214 0 25 2 1 0 0 0 2 1.502
2427 214 0 26 2 2 0 1 1 0 0.626
2428 214 0 27 0 2 2 0 1 2 0.593
2429 214 0 28 0 0 2 1 1 2 0.546
2430 214 0 29 0 0 2 1 1 2 0.501
2431 214 0 30 3 1 0 0 1 0 0.713
2432 214 0 31 1 1 1 2 1 1 0.651
2433 214 0 32 1 1 2 2 1 2 0.575
2434 214 0 33 3 3 3 2 1 3 0.871
2435 214 0 34 0 0 0 1 1 0 0.558
2436 214 0 35 2 2 3 2 1 3 0.662
2437 214 0 36 1 1 1 1 1 1 0.564
2438 214 0 37 0 0 3 1 1 3 0.518
2439 214 0 38 2 1 3 0 1 3 0.826
2440 214 0 39 0 1 1 0 1 1 0.594
2441 214 0 40 3 3 1 1 1 1 0.595
2442 214 0 41 2 1 0 0 0 3 0.82
2443 214 0 42 1 1 3 1 1 3 0.736
2444 214 0 43 2 2 0 1 1 0 0.475
2445 214 0 44 2 2 3 1 1 3 0.576
2446 214 0 45 3 3 0 2 1 0 0.631
2447 214 0 46 3 3 3 2 1 3 0.797
2448 214 0 47 1 1 1 1 1 1 0.695
2449 214 0 48 1 1 1 2 1 1 0.586
2450 214 0 49 3 2 2 0 1 2 0.667
2451 214 0 50 2 1 2 0 1 2 0.906
2452 214 0 51 0 0 0 1 1 0 0.704
2453 214 0 52 2 2 2 1 1 2 0.684
2454 214 0 53 1 1 2 1 1 2 0.682
2455 214 0 54 3 3 2 2 1 2 1.134
2456 214 0 55 3 3 0 2 1 0 0.689
2457 214 0 56 3 3 2 1 1 2 0.558
2458 214 0 57 0 0 2 2 1 2 0.838
2459 214 0 58 3 3 1 1 1 1 0.542
2460 214 0 59 0 0 3 2 1 3 0.759
2461 214 0 60 0 1 2 0 1 2 0.658
2462 214 0 61 0 0 3 1 1 3 0.624
2463 214 0 62 3 3 0 2 0 2 0.902
2464 214 0 63 0 0 1 2 0 2 2.133
2465 214 0 64 3 3 1 1 1 1 0.658
2466 214 0 65 3 2 0 0 1 0 0.609
2467 214 0 66 0 0 3 2 0 2 0.935
2468 214 0 67 3 0 0 0 0 2 1.247
2469 214 0 68 0 2 0 0 0 1 1.116
2470 214 0 69 1 1 2 2 1 2 0.963
2471 214 0 70 1 1 2 1 1 2 0.678
2472 214 0 71 2 3 2 0 0 1 1.684
2473 214 0 72 3 3 2 1 0 3 0.706
2474 214 0 73 0 0 2 1 1 2 0.802
2475 214 0 74 2 2 1 1 1 1 0.939
2476 214 0 75 3 3 3 1 1 3 0.832
2477 214 0 76 2 2 3 1 1 3 0.84
2478 214 0 77 3 3 0 1 1 0 0.976
2479 214 0 78 2 0 1 0 0 2 1.076
2480 214 0 79 2 2 2 2 1 2 1.197
2481 214 1 80 2 2 1 2 1 1 0.838
2482 214 1 81 3 0 0 0 1 0 0.638
2483 214 1 82 0 0 1 2 1 1 0.691
2484 214 1 83 2 2 3 2 1 3 0.711
2485 214 1 84 2 2 3 1 1 3 0.739
2486 214 1 85 1 1 2 2 1 2 0.789
2487 214 1 86 2 3 0 0 1 0 1.263
2488 214 1 87 3 3 1 2 1 1 0.765
2489 214 1 88 1 2 1 0 0 2 1.144
2490 214 1 89 3 2 2 0 1 2 0.681
2491 214 1 90 0 1 1 0 1 1 1.031
2492 214 1 91 0 0 1 2 1 1 0.782
2493 214 1 92 1 1 1 2 1 1 0.733
2494 214 1 93 0 0 3 2 1 3 1.503
2495 214 1 94 1 1 1 2 1 1 0.757
2496 214 1 95 0 1 3 0 0 1 0.848
2497 214 1 96 2 1 2 0 1 2 0.748
2498 214 1 97 2 2 0 2 1 0 0.685
2499 214 1 98 0 0 3 1 1 3 0.699
2500 214 1 99 0 1 2 0 1 2 0.743
2501 214 1 100 2 1 0 0 1 0 0.691
2502 214 1 101 1 2 3 0 1 3 0.672
2503 214 1 102 0 0 1 2 1 1 0.644
2504 214 1 103 3 3 0 1 1 0 0.643
2505 214 1 104 3 3 3 1 1 3 0.754
2506 214 1 105 2 2 2 2 1 2 0.755
2507 214 1 106 2 2 3 2 1 3 0.772
2508 214 1 107 3 2 2 0 1 2 0.702
2509 214 1 108 3 3 3 1 1 3 0.667
2510 214 1 109 0 0 2 1 1 2 1.049
2511 214 1 110 0 0 2 1 1 2 1.513
2512 214 1 111 2 2 2 2 1 2 0.607
2513 214 1 112 1 2 2 0 1 2 0.655
2514 214 1 113 0 1 2 0 1 2 0.686
2515 214 1 114 2 1 0 0 0 2 0.587
2516 214 1 115 3 3 1 1 1 1 0.768
2517 214 1 116 0 0 3 1 1 3 0.714
2518 214 1 117 0 0 3 2 1 3 0.7
2519 214 1 118 3 2 1 0 1 1 0.729
2520 214 1 119 0 0 0 2 1 0 1.931
2521 214 1 120 0 0 1 2 1 1 0.914
2522 214 1 121 2 2 3 2 1 3 0.99
2523 214 1 122 0 0 3 2 0 2 0.886
2524 214 1 123 3 3 1 1 1 1 2.944
2525 214 1 124 1 1 1 1 1 1 0.876
2526 214 1 125 3 3 3 2 1 3 0.889
2527 214 1 126 3 3 1 1 1 1 0.623
2528 214 1 127 3 3 3 2 1 3 0.677
2529 214 1 128 0 0 3 2 1 3 0.648
2530 214 1 129 2 1 0 0 0 1 1.478
2531 214 1 130 3 3 2 2 1 2 0.801
2532 214 1 131 3 2 3 0 1 3 0.602
2533 214 1 132 3 2 3 0 1 3 0.699
2534 214 1 133 3 3 3 1 1 3 0.696
2535 214 1 134 0 2 0 0 0 2 1.141
2536 214 1 135 1 1 0 1 1 0 0.71
2537 214 1 136 0 0 1 2 1 1 0.616
2538 214 1 137 1 1 2 2 1 2 1.326
2539 214 1 138 0 0 3 2 1 3 0.699
2540 214 1 139 0 0 2 1 1 2 0.584
2541 214 1 140 1 1 0 2 1 0 0.894
2542 214 1 141 3 3 3 2 1 3 0.762
2543 214 1 142 0 0 0 2 1 0 0.714
2544 214 1 143 0 0 1 2 1 1 0.573
2545 214 1 144 2 1 1 0 1 1 1.071
2546 214 1 145 2 2 1 1 1 1 0.606
2547 214 1 146 2 2 3 1 1 3 0.735
2548 214 1 147 3 0 3 0 1 3 0.906
2549 214 1 148 0 0 1 2 1 1 0.582
2550 214 1 149 1 1 1 2 1 1 0.733
2551 214 1 150 0 0 2 2 1 2 0.574
2552 214 1 151 1 2 3 0 1 3 0.816
2553 214 1 152 1 1 0 2 1 0 0.671
2554 214 1 153 1 1 1 1 1 1 0.749
2555 214 1 154 3 3 2 2 1 2 0.686
2556 214 1 155 3 2 1 0 1 1 0.539
2557 214 1 156 3 3 3 2 1 3 0.804
2558 214 1 157 1 1 3 1 1 3 0.653
2559 214 1 158 0 0 1 2 1 1 1.282
2560 214 1 159 3 2 3 0 1 3 0.682
2561 214 2 160 3 3 2 1 1 2 0.838
2562 214 2 161 2 2 2 2 1 2 0.692
2563 214 2 162 2 3 3 0 1 3 0.802
2564 214 2 163 2 1 2 0 0 3 0.891
2565 214 2 164 0 0 1 2 1 1 2.795
2566 214 2 165 1 1 1 2 0 3 0.835
2567 214 2 166 2 3 1 0 0 3 0.799
2568 214 2 167 2 2 0 2 1 0 2.001
2569 214 2 168 1 1 0 1 1 0 0.944
2570 214 2 169 2 0 0 0 1 0 1.012
2571 214 2 170 3 0 0 0 1 0 0.614
2572 214 2 171 2 0 1 0 1 1 0.775
2573 214 2 172 0 0 1 2 1 1 0.839
2574 214 2 173 2 2 3 2 1 3 0.853
2575 214 2 174 3 3 0 2 0 3 0.946
2576 214 2 175 0 0 0 1 1 0 0.826
2577 214 2 176 3 3 1 1 1 1 0.611
2578 214 2 177 0 0 2 1 1 2 0.643
2579 214 2 178 0 2 3 0 1 3 0.722
2580 214 2 179 1 1 0 1 1 0 0.702
2581 214 2 180 1 1 1 1 1 1 0.507
2582 214 2 181 3 3 2 2 1 2 0.661
2583 214 2 182 1 1 3 1 1 3 0.818
2584 214 2 183 0 0 3 2 1 3 0.785
2585 214 2 184 1 1 2 2 1 2 0.817
2586 214 2 185 3 3 3 2 1 3 0.799
2587 214 2 186 2 2 1 1 1 1 0.585
2588 214 2 187 2 0 3 0 1 3 0.634
2589 214 2 188 0 0 2 2 1 2 0.639
2590 214 2 189 1 1 1 2 1 1 0.788
2591 214 2 190 0 1 3 0 1 3 0.734
2592 214 2 191 3 1 2 0 1 2 1.449
2593 214 2 192 2 1 3 0 1 3 0.731
2594 214 2 193 3 3 1 2 1 1 0.621
2595 214 2 194 3 3 3 2 1 3 0.77
2596 214 2 195 1 1 0 2 0 3 0.819
2597 214 2 196 3 3 1 1 1 1 0.687
2598 214 2 197 2 2 2 1 1 2 0.671
2599 214 2 198 1 1 2 2 1 2 0.659
2600 214 2 199 3 3 3 1 1 3 0.625
2601 214 2 200 3 3 0 2 1 0 0.679
2602 214 2 201 3 3 1 2 0 2 0.746
2603 214 2 202 2 2 2 2 1 2 0.688
2604 214 2 203 0 1 0 0 0 2 1.581
2605 214 2 204 0 1 3 0 1 3 0.766
2606 214 2 205 1 1 0 1 1 0 0.697
2607 214 2 206 2 1 2 0 0 0 1.206
2608 214 2 207 3 3 2 1 1 2 1.557
2609 214 2 208 0 1 2 0 1 2 0.803
2610 214 2 209 0 0 2 2 1 2 0.722
2611 214 2 210 1 1 3 2 1 3 0.804
2612 214 2 211 2 2 2 2 1 2 0.739
2613 214 2 212 0 1 1 0 0 2 0.814
2614 214 2 213 1 2 0 0 1 0 0.715
2615 214 2 214 3 3 1 2 1 1 0.67
2616 214 2 215 3 2 1 0 1 1 0.636
2617 214 2 216 1 1 2 1 0 1 0.763
2618 214 2 217 2 2 1 2 1 1 0.802
2619 214 2 218 2 0 3 0 1 3 0.731
2620 214 2 219 1 1 1 1 1 1 0.615
2621 214 2 220 1 1 0 2 1 0 0.685
2622 214 2 221 1 1 2 1 1 2 0.65
2623 214 2 222 3 2 0 0 1 0 1.241
2624 214 2 223 3 1 1 0 1 1 0.69
2625 214 2 224 1 1 0 2 1 0 0.646
2626 214 2 225 0 2 3 0 1 3 0.853
2627 214 2 226 3 3 2 2 1 2 0.834
2628 214 2 227 1 2 0 0 1 0 0.971
2629 214 2 228 2 1 3 0 1 3 0.734
2630 214 2 229 1 2 0 0 1 0 0.602
2631 214 2 230 0 0 0 1 1 0 0.538
2632 214 2 231 1 2 2 0 1 2 0.588
2633 214 2 232 1 1 0 2 0 1 0.867
2634 214 2 233 0 0 2 2 1 2 0.692
2635 214 2 234 0 0 1 2 1 1 0.615
2636 214 2 235 1 0 0 0 1 0 0.631
2637 214 2 236 0 0 0 2 1 0 0.524
2638 214 2 237 0 0 1 1 0 0 1.44
2639 214 2 238 3 3 2 2 1 2 0.716
2640 214 2 239 1 1 1 2 1 1 0.59
2641 214 3 240 1 1 1 2 1 1 1.007
2642 214 3 241 2 0 2 0 1 2 0.769
2643 214 3 242 1 1 2 1 1 2 1.084
2644 214 3 243 0 0 0 2 1 0 0.705
2645 214 3 244 0 1 1 0 1 1 0.541
2646 214 3 245 1 0 1 0 1 1 0.384
2647 214 3 246 1 1 3 2 1 3 1.557
2648 214 3 247 1 0 3 0 1 3 3.348
2649 214 3 248 0 0 2 1 1 2 1.202
2650 214 3 249 0 0 1 1 1 1 1.021
2651 214 3 250 2 3 2 0 1 2 1.502
2652 214 3 251 3 3 3 1 1 3 0.991
2653 214 3 252 3 3 2 1 1 2 0.945
2654 214 3 253 0 0 3 2 1 3 0.876
2655 214 3 254 1 1 2 2 1 2 0.744
2656 214 3 255 3 3 3 1 1 3 0.692
2657 214 3 256 1 1 1 2 1 1 0.679
2658 214 3 257 1 0 3 0 1 3 0.645
2659 214 3 258 3 0 1 0 1 1 0.628
2660 214 3 259 0 0 3 1 1 3 0.58
2661 214 3 260 1 1 2 1 1 2 0.613
2662 214 3 261 2 3 3 0 1 3 1.062
2663 214 3 262 1 1 3 1 1 3 0.678
2664 214 3 263 0 0 1 2 1 1 0.57
2665 214 3 264 1 2 1 0 1 1 0.604
2666 214 3 265 1 1 1 1 1 1 0.636
2667 214 3 266 1 1 2 1 1 2 0.556
2668 214 3 267 3 3 0 2 1 0 0.98
2669 214 3 268 1 1 1 2 1 1 0.653
2670 214 3 269 1 2 1 0 1 1 0.635
2671 214 3 270 2 2 0 2 1 0 0.624
2672 214 3 271 2 2 0 2 1 0 0.726
2673 214 3 272 3 1 2 0 1 2 0.93
2674 214 3 273 2 2 3 1 1 3 0.855
2675 214 3 274 1 1 3 2 1 3 0.736
2676 214 3 275 2 2 2 1 1 2 0.684
2677 214 3 276 1 1 2 1 1 2 0.729
2678 214 3 277 2 2 1 2 1 1 0.763
2679 214 3 278 2 1 3 0 1 3 0.758
2680 214 3 279 3 3 0 2 1 0 0.695
2681 214 3 280 0 0 2 2 1 2 0.715
2682 214 3 281 0 0 3 2 1 3 0.829
2683 214 3 282 0 0 1 1 1 1 0.63
2684 214 3 283 0 0 0 2 1 0 0.732
2685 214 3 284 2 2 3 2 1 3 0.75
2686 214 3 285 1 2 3 0 1 3 0.697
2687 214 3 286 2 2 3 1 1 3 0.63
2688 214 3 287 3 3 1 1 1 1 0.582
2689 214 3 288 1 1 3 2 1 3 0.781
2690 214 3 289 3 3 1 2 1 1 0.925
2691 214 3 290 3 3 2 1 1 2 0.705
2692 214 3 291 3 3 3 2 1 3 0.66
2693 214 3 292 3 3 2 1 1 2 0.755
2694 214 3 293 2 2 1 1 1 1 0.638
2695 214 3 294 1 2 0 0 1 0 0.669
2696 214 3 295 3 2 0 0 1 0 0.699
2697 214 3 296 2 1 2 0 1 2 0.744
2698 214 3 297 1 1 3 2 1 3 0.665
2699 214 3 298 1 1 0 1 1 0 0.871
2700 214 3 299 1 1 1 1 1 1 0.494
2701 214 3 300 1 2 2 0 1 2 0.595
2702 214 3 301 3 3 0 1 1 0 0.708
2703 214 3 302 3 3 2 1 1 2 0.74
2704 214 3 303 1 1 2 1 1 2 0.607
2705 214 3 304 2 1 2 0 1 2 0.72
2706 214 3 305 1 1 0 1 1 0 0.684
2707 214 3 306 1 1 2 2 1 2 0.72
2708 214 3 307 2 0 3 0 1 3 0.748
2709 214 3 308 3 3 0 2 1 0 0.717
2710 214 3 309 0 0 0 2 1 0 0.797
2711 214 3 310 0 0 2 1 1 2 0.774
2712 214 3 311 1 1 3 1 1 3 1.249
2713 214 3 312 3 3 3 1 1 3 0.762
2714 214 3 313 2 2 0 2 1 0 0.763
2715 214 3 314 3 3 2 2 0 3 0.812
2716 214 3 315 1 1 2 1 1 2 0.631
2717 214 3 316 1 1 3 1 1 3 0.71
2718 214 3 317 0 0 1 2 1 1 0.633
2719 214 3 318 3 3 2 1 1 2 0.654
2720 214 3 319 0 0 1 1 1 1 0.621
2721 214 4 320 3 2 1 0 1 1 0.823
2722 214 4 321 1 2 1 0 1 1 0.656
2723 214 4 322 3 3 0 2 0 2 0.788
2724 214 4 323 3 1 1 0 1 1 0.897
2725 214 4 324 0 1 3 0 1 3 0.664
2726 214 4 325 1 1 0 1 1 0 0.758
2727 214 4 326 0 0 2 2 1 2 0.775
2728 214 4 327 0 2 0 0 1 0 0.561
2729 214 4 328 2 2 1 1 1 1 0.627
2730 214 4 329 0 0 2 2 1 2 0.713
2731 214 4 330 0 0 0 1 1 0 0.613
2732 214 4 331 3 2 2 0 1 2 0.646
2733 214 4 332 0 2 2 0 1 2 0.717
2734 214 4 333 1 1 2 1 1 2 0.633
2735 214 4 334 3 2 2 0 1 2 0.568
2736 214 4 335 1 1 0 2 1 0 0.976
2737 214 4 336 3 3 1 2 1 1 0.777
2738 214 4 337 0 1 2 0 0 1 0.803
2739 214 4 338 2 1 0 0 1 0 0.64
2740 214 4 339 2 3 1 0 1 1 0.655
2741 214 4 340 2 3 3 0 1 3 0.622
2742 214 4 341 0 0 0 1 1 0 0.685
2743 214 4 342 1 2 3 0 1 3 0.731
2744 214 4 343 0 0 3 2 1 3 0.733
2745 214 4 344 3 1 1 0 0 0 1.353
2746 214 4 345 2 2 3 2 1 3 0.696
2747 214 4 346 3 3 1 1 1 1 0.564
2748 214 4 347 0 1 3 0 0 1 0.79
2749 214 4 348 3 0 2 0 1 2 0.867
2750 214 4 349 1 1 2 2 1 2 0.8
2751 214 4 350 0 1 3 0 1 3 0.633
2752 214 4 351 1 1 3 1 1 3 0.936
2753 214 4 352 2 2 2 2 1 2 0.707
2754 214 4 353 0 1 3 0 1 3 0.687
2755 214 4 354 3 0 3 0 1 3 0.765
2756 214 4 355 2 3 0 0 1 0 0.695
2757 214 4 356 2 2 0 2 1 0 0.794
2758 214 4 357 0 0 2 1 1 2 0.612
2759 214 4 358 0 1 0 0 0 3 1.365
2760 214 4 359 1 2 1 0 1 1 2.317
2761 214 4 360 1 2 0 0 1 0 0.464
2762 214 4 361 2 2 0 2 1 0 0.364
2763 214 4 362 0 0 0 1 1 0 0.309
2764 214 4 363 3 3 1 1 1 1 0.576
2765 214 4 364 3 3 2 1 1 2 0.682
2766 214 4 365 3 3 3 1 1 3 0.616
2767 214 4 366 0 0 1 1 1 1 0.6
2768 214 4 367 1 1 3 2 1 3 1.039
2769 214 4 368 2 2 1 2 1 1 0.63
2770 214 4 369 3 3 0 1 1 0 0.549
2771 214 4 370 0 0 3 1 1 3 0.744
2772 214 4 371 2 2 2 1 1 2 0.675
2773 214 4 372 1 1 2 1 1 2 0.737
2774 214 4 373 1 1 3 2 0 2 1.283
2775 214 4 374 2 2 1 1 1 1 0.606
2776 214 4 375 0 1 1 0 1 1 1.966
2777 214 4 376 1 1 0 2 1 0 0.452
2778 214 4 377 0 1 0 0 1 0 0.202
2779 214 4 378 2 2 3 2 1 3 0.75
2780 214 4 379 1 1 1 1 1 1 0.793
2781 214 4 380 2 0 2 0 1 2 0.691
2782 214 4 381 3 3 1 2 1 1 0.55
2783 214 4 382 3 3 3 1 1 3 0.712
2784 214 4 383 2 0 0 0 1 0 0.836
2785 214 4 384 1 1 3 2 1 3 0.818
2786 214 4 385 1 1 2 1 1 2 0.907
2787 214 4 386 1 2 2 0 1 2 0.817
2788 214 4 387 0 0 3 1 1 3 0.633
2789 214 4 388 0 0 0 2 1 0 0.67
2790 214 4 389 2 1 3 0 0 1 1.244
2791 214 4 390 2 2 1 1 1 1 0.89
2792 214 4 391 0 0 1 2 1 1 1.014
2793 214 4 392 1 1 1 1 1 1 0.519
2794 214 4 393 0 0 1 2 0 2 3.184
2795 214 4 394 2 3 3 0 1 3 1.112
2796 214 4 395 3 3 1 1 1 1 0.679
2797 214 4 396 0 0 3 1 1 3 0.741
2798 214 4 397 1 1 3 1 1 3 0.832
2799 214 4 398 2 3 1 0 1 1 1.688
2800 214 4 399 1 1 2 1 1 2 0.626
2801 214 5 400 0 0 3 1 1 3 0.692
2802 214 5 401 3 2 2 0 1 2 0.738
2803 214 5 402 1 0 3 0 1 3 0.653
2804 214 5 403 1 1 3 1 0 1 1.228
2805 214 5 404 0 0 2 1 1 2 0.554
2806 214 5 405 2 2 3 1 1 3 0.556
2807 214 5 406 1 1 2 2 1 2 1.012
2808 214 5 407 3 3 0 1 1 0 0.726
2809 214 5 408 2 0 0 0 1 0 0.482
2810 214 5 409 0 0 0 1 1 0 0.183
2811 214 5 410 3 0 3 0 1 3 0.743
2812 214 5 411 2 2 3 1 1 3 0.386
2813 214 5 412 3 3 2 1 1 2 0.746
2814 214 5 413 1 1 1 1 1 1 0.598
2815 214 5 414 1 1 2 1 1 2 0.791
2816 214 5 415 1 0 0 0 1 0 0.673
2817 214 5 416 1 1 0 2 1 0 0.645
2818 214 5 417 1 1 3 1 1 3 0.82
2819 214 5 418 0 0 2 2 1 2 0.658
2820 214 5 419 2 2 2 1 1 2 0.56
2821 214 5 420 1 1 1 2 1 1 0.663
2822 214 5 421 3 0 1 0 1 1 1.062
2823 214 5 422 3 3 1 1 1 1 0.374
2824 214 5 423 0 0 1 2 1 1 0.308
2825 214 5 424 1 1 0 2 1 0 0.773
2826 214 5 425 3 3 0 1 1 0 0.32
2827 214 5 426 1 1 0 1 1 0 0.298
2828 214 5 427 3 3 1 1 1 1 0.406
2829 214 5 428 2 2 3 1 1 3 0.765
2830 214 5 429 1 0 1 0 1 1 0.552
2831 214 5 430 3 0 2 0 1 2 0.73
2832 214 5 431 2 2 2 2 0 1 0.892
2833 214 5 432 2 0 2 0 1 2 0.597
2834 214 5 433 1 1 1 2 1 1 1.244
2835 214 5 434 2 2 2 1 1 2 0.534
2836 214 5 435 3 3 3 2 1 3 0.607
2837 214 5 436 1 1 0 2 1 0 0.565
2838 214 5 437 3 3 0 1 1 0 0.343
2839 214 5 438 1 1 1 2 1 1 0.503
2840 214 5 439 1 1 3 1 1 3 0.603
2841 214 5 440 2 2 0 2 0 2 0.849
2842 214 5 441 3 3 3 1 1 3 0.556
2843 214 5 442 3 3 2 2 1 2 0.5
2844 214 5 443 2 0 3 0 0 2 1.209
2845 214 5 444 2 0 2 0 1 2 0.599
2846 214 5 445 2 0 3 0 1 3 0.583
2847 214 5 446 1 2 3 0 1 3 0.52
2848 214 5 447 0 0 3 1 1 3 0.54
2849 214 5 448 0 0 0 1 1 0 0.59
2850 214 5 449 3 3 0 1 1 0 0.191
2851 214 5 450 1 2 2 0 1 2 0.718
2852 214 5 451 3 3 0 2 1 0 0.481
2853 214 5 452 1 1 3 2 0 2 0.956
2854 214 5 453 3 3 3 1 0 2 0.947
2855 214 5 454 2 2 0 1 1 0 0.395
2856 214 5 455 2 1 2 0 1 2 0.659
2857 214 5 456 3 3 1 1 0 0 0.13
2858 214 5 457 3 3 2 1 1 2 0.727
2859 214 5 458 0 0 3 1 1 3 0.723
2860 214 5 459 0 0 0 2 1 0 0.533
2861 214 5 460 2 2 1 2 1 1 0.605
2862 214 5 461 2 2 1 1 1 1 0.462
2863 214 5 462 1 2 3 0 1 3 1.236
2864 214 5 463 2 2 2 2 1 2 0.579
2865 214 5 464 0 0 3 2 1 3 0.586
2866 214 5 465 2 0 0 0 1 0 0.571
2867 214 5 466 1 1 0 2 0 1 0.882
2868 214 5 467 3 3 0 1 1 0 0.62
2869 214 5 468 0 1 1 0 1 1 0.62
2870 214 5 469 3 3 0 1 1 0 0.587
2871 214 5 470 3 0 3 0 1 3 0.652
2872 214 5 471 3 2 3 0 1 3 0.682
2873 214 5 472 2 2 3 2 1 3 0.622
2874 214 5 473 1 1 2 2 1 2 0.611
2875 214 5 474 0 2 2 0 1 2 0.548
2876 214 5 475 3 3 3 1 1 3 0.614
2877 214 5 476 0 1 0 0 1 0 0.582
2878 214 5 477 3 3 0 2 0 2 1.357
2879 214 5 478 1 2 3 0 0 2 2.39
2880 214 5 479 0 0 1 1 1 1 0.523
2881 217 0 0 2 1 0 0 0 1 0.734
2882 217 0 1 2 2 3 1 1 3 0.512
2883 217 0 2 2 2 0 1 1 0 0.31
2884 217 0 3 0 0 0 2 1 0 0.345
2885 217 0 4 2 2 3 1 1 3 0.342
2886 217 0 5 1 1 3 2 1 3 0.456
2887 217 0 6 1 1 2 2 0 3 0.486
2888 217 0 7 0 0 1 2 1 1 0.358
2889 217 0 8 3 1 2 0 1 2 1.202
2890 217 0 9 0 0 1 2 0 3 1.237
2891 217 0 10 1 2 1 0 1 1 0.517
2892 217 0 11 3 2 1 0 1 1 0.315
2893 217 0 12 1 1 3 2 0 2 0.622
2894 217 0 13 1 1 3 2 1 3 0.33
2895 217 0 14 3 0 3 0 1 3 0.423
2896 217 0 15 1 1 1 2 1 1 0.52
2897 217 0 16 2 0 1 0 1 1 0.27
2898 217 0 17 0 1 0 0 1 0 0.204
2899 217 0 18 1 1 1 1 1 1 0.637
2900 217 0 19 2 2 0 2 0 1 0.725
2901 217 0 20 3 3 3 1 1 3 0.551
2902 217 0 21 3 3 1 2 1 1 0.353
2903 217 0 22 0 2 2 0 0 1 0.909
2904 217 0 23 3 3 2 2 1 2 0.51
2905 217 0 24 3 3 3 1 1 3 0.325
2906 217 0 25 0 1 3 0 1 3 0.434
2907 217 0 26 1 1 2 2 1 2 0.401
2908 217 0 27 0 0 1 2 1 1 0.369
2909 217 0 28 3 3 2 2 0 3 0.258
2910 217 0 29 2 2 2 1 1 2 0.469
2911 217 0 30 3 3 2 1 1 2 0.493
2912 217 0 31 0 0 2 2 0 1 0.794
2913 217 0 32 0 0 1 1 1 1 0.361
2914 217 0 33 1 1 2 1 1 2 0.357
2915 217 0 34 2 0 1 0 1 1 0.417
2916 217 0 35 3 1 1 0 1 1 0.346
2917 217 0 36 0 2 2 0 0 1 0.583
2918 217 0 37 3 3 0 1 1 0 0.413
2919 217 0 38 3 2 2 0 1 2 0.583
2920 217 0 39 0 2 3 0 1 3 0.379
2921 217 0 40 0 0 3 2 1 3 0.395
2922 217 0 41 0 0 3 2 1 3 0.172
2923 217 0 42 2 2 0 1 0 1 0.894
2924 217 0 43 2 2 3 1 1 3 1.402
2925 217 0 44 1 2 0 0 1 0 0.416
2926 217 0 45 0 2 0 0 1 0 0.314
2927 217 0 46 3 0 2 0 0 1 0.535
2928 217 0 47 2 0 3 0 1 3 0.368
2929 217 0 48 0 0 1 1 1 1 0.587
2930 217 0 49 3 2 0 0 0 2 3.263
2931 217 0 50 1 1 3 2 1 3 0.828
2932 217 0 51 0 0 3 1 1 3 0.647
2933 217 0 52 3 0 0 0 1 0 0.824
2934 217 0 53 1 1 3 2 1 3 0.649
2935 217 0 54 3 3 0 2 0 2 1.185
2936 217 0 55 2 2 3 2 0 2 0.839
2937 217 0 56 2 2 0 2 1 0 0.715
2938 217 0 57 1 1 1 2 0 0 0.64
2939 217 0 58 3 3 0 2 1 0 0.795
2940 217 0 59 3 3 1 1 1 1 0.887
2941 217 0 60 0 0 3 1 0 2 1.664
2942 217 0 61 1 1 3 1 1 3 0.736
2943 217 0 62 1 1 3 1 1 3 0.606
2944 217 0 63 3 3 0 1 1 0 0.737
2945 217 0 64 3 2 3 0 0 1 0.911
2946 217 0 65 1 1 2 2 1 2 0.576
2947 217 0 66 1 1 0 2 1 0 0.666
2948 217 0 67 1 2 1 0 1 1 0.587
2949 217 0 68 3 3 0 2 1 0 0.724
2950 217 0 69 0 0 1 1 1 1 0.851
2951 217 0 70 1 1 1 1 1 1 0.541
2952 217 0 71 3 0 3 0 1 3 0.578
2953 217 0 72 2 2 1 1 1 1 0.63
2954 217 0 73 3 3 1 1 1 1 0.84
2955 217 0 74 0 0 2 1 0 1 0.674
2956 217 0 75 0 2 0 0 0 1 3.934
2957 217 0 76 3 3 2 1 1 2 0.348
2958 217 0 77 0 0 2 1 1 2 0.377
2959 217 0 78 1 1 2 2 0 1 1.034
2960 217 0 79 2 2 0 1 0 1 0.912
2961 217 1 80 2 2 3 2 0 1 0.985
2962 217 1 81 1 1 1 2 1 1 0.664
2963 217 1 82 0 0 2 2 1 2 0.671
2964 217 1 83 3 3 3 2 1 3 0.437
2965 217 1 84 1 2 2 0 0 3 0.846
2966 217 1 85 2 2 3 1 1 3 0.458
2967 217 1 86 0 0 0 2 1 0 0.792
2968 217 1 87 2 2 3 2 0 2 0.698
2969 217 1 88 3 2 1 0 1 1 0.83
2970 217 1 89 1 1 2 2 1 2 0.383
2971 218 0 0 3 3 1 1 1 1 1.227
2972 217 1 90 2 3 3 0 1 3 0.954
2973 218 0 1 2 2 1 1 1 1 0.486
2974 217 1 91 2 2 0 2 0 2 1.078
2975 218 0 2 1 1 3 1 1 3 0.978
2976 217 1 92 2 2 2 2 1 2 1.041
2977 218 0 3 3 3 2 1 1 2 0.708
2978 217 1 93 3 3 2 1 1 2 0.805
2979 218 0 4 2 1 3 0 1 3 1.449
2980 217 1 94 1 2 2 0 1 2 0.864
2981 218 0 5 3 3 0 1 1 0 0.467
2982 217 1 95 2 2 3 2 1 3 0.751
2983 218 0 6 2 2 3 1 1 3 0.424
2984 217 1 96 2 2 2 2 1 2 0.835
2985 218 0 7 1 2 3 0 0 2 0.847
2986 217 1 97 2 1 0 0 0 3 1.053
2987 218 0 8 0 1 0 0 0 3 0.642
2988 217 1 98 3 3 2 2 1 2 1.129
2989 218 0 9 0 1 3 0 0 2 0.66
2990 217 1 99 1 1 2 2 0 3 1.184
2991 218 0 10 2 2 0 1 1 0 0.487
2992 218 0 11 1 0 2 0 0 3 0.595
2993 217 1 100 1 1 0 1 1 0 0.785
2994 218 0 12 2 2 2 2 1 2 0.885
2995 217 1 101 1 2 0 0 1 0 0.732
2996 218 0 13 3 3 1 2 1 1 0.593
2997 217 1 102 2 2 3 2 1 3 1.297
2998 218 0 14 3 3 1 1 1 1 0.402
2999 217 1 103 3 3 2 2 1 2 1.297
3000 218 0 15 1 2 2 0 0 1 0.601
3001 217 1 104 2 3 0 0 1 0 0.826
3002 218 0 16 1 1 3 2 1 3 1.291
3003 217 1 105 3 3 3 2 1 3 0.827
3004 218 0 17 3 3 0 1 1 0 0.515
3005 217 1 106 3 3 0 1 1 0 0.726
3006 218 0 18 1 0 3 0 1 3 0.679
3007 217 1 107 0 0 1 1 0 2 1.173
3008 218 0 19 0 0 2 1 1 2 0.805
3009 217 1 108 0 0 3 1 1 3 0.759
3010 218 0 20 2 2 1 1 1 1 0.774
3011 217 1 109 0 0 3 2 1 3 0.73
3012 218 0 21 1 2 0 0 0 2 0.841
3013 217 1 110 3 3 1 2 1 1 0.735
3014 218 0 22 3 3 3 1 1 3 0.66
3015 217 1 111 0 2 2 0 1 2 0.941
3016 218 0 23 2 2 0 2 1 0 1.081
3017 217 1 112 0 1 3 0 1 3 0.915
3018 218 0 24 0 1 2 0 0 0 0.784
3019 217 1 113 3 3 0 1 1 0 0.731
3020 218 0 25 2 1 1 0 1 1 0.79
3021 217 1 114 2 2 0 2 0 3 1.007
3022 218 0 26 2 2 1 1 1 1 0.479
3023 217 1 115 0 0 0 2 0 2 1.229
3024 218 0 27 3 3 1 1 1 1 0.437
3025 217 1 116 3 3 1 1 1 1 0.701
3026 218 0 28 1 1 0 2 0 1 0.921
3027 217 1 117 1 1 1 2 0 3 1.123
3028 218 0 29 3 3 0 1 1 0 0.433
3029 217 1 118 1 2 1 0 1 1 0.695
3030 218 0 30 2 2 3 2 1 3 1.053
3031 217 1 119 0 0 1 1 0 3 1.255
3032 218 0 31 0 0 2 1 1 2 0.83
3033 217 1 120 0 0 0 2 1 0 0.668
3034 218 0 32 2 2 3 2 1 3 1.18
3035 217 1 121 2 2 0 2 1 0 0.77
3036 218 0 33 0 2 1 0 0 2 1.488
3037 217 1 122 2 2 0 1 1 0 0.623
3038 218 0 34 0 0 3 1 1 3 0.829
3039 217 1 123 0 0 3 2 1 3 0.839
3040 218 0 35 0 1 1 0 0 2 0.573
3041 217 1 124 2 2 0 1 1 0 0.641
3042 217 1 125 0 1 2 0 1 2 0.755
3043 218 0 36 3 3 1 1 1 1 1.259
3044 218 0 37 0 0 1 1 1 1 0.492
3045 217 1 126 2 3 2 0 0 3 0.924
3046 218 0 38 0 0 0 1 0 1 0.352
3047 217 1 127 2 0 2 0 1 2 0.806
3048 218 0 39 0 0 1 1 1 1 0.261
3049 217 1 128 0 1 0 0 0 3 1.202
3050 218 0 40 3 3 3 2 0 2 0.64
3051 217 1 129 2 2 3 2 1 3 0.76
3052 218 0 41 0 0 1 2 1 1 0.569
3053 217 1 130 0 0 3 2 0 2 1.148
3054 218 0 42 1 2 3 0 1 3 1.291
3055 217 1 131 1 1 0 1 0 1 1.439
3056 218 0 43 3 3 3 1 1 3 0.483
3057 217 1 132 0 2 0 0 1 0 0.711
3058 218 0 44 3 3 2 1 1 2 0.591
3059 217 1 133 1 1 1 2 1 1 0.812
3060 218 0 45 2 2 3 2 1 3 0.526
3061 217 1 134 3 3 0 1 1 0 0.744
3062 218 0 46 2 1 2 0 1 2 1.682
3063 217 1 135 3 3 1 2 1 1 0.972
3064 218 0 47 1 1 1 2 1 1 0.617
3065 217 1 136 1 1 3 1 1 3 0.849
3066 218 0 48 2 2 2 2 1 2 0.583
3067 217 1 137 0 0 0 2 0 3 1.121
3068 218 0 49 0 1 0 0 0 3 1.384
3069 217 1 138 0 0 0 2 1 0 0.683
3070 218 0 50 2 1 1 0 0 2 0.576
3071 217 1 139 1 1 0 2 1 0 0.688
3072 218 0 51 3 3 2 1 1 2 0.637
3073 217 1 140 3 3 3 1 1 3 0.88
3074 218 0 52 0 0 1 2 0 2 0.626
3075 217 1 141 3 3 3 1 1 3 0.841
3076 218 0 53 1 1 1 2 1 1 0.723
3077 217 1 142 3 3 3 2 1 3 0.762
3078 218 0 54 0 1 0 0 0 2 0.919
3079 217 1 143 2 0 1 0 1 1 0.775
3080 218 0 55 0 0 2 1 1 2 0.696
3081 217 1 144 0 0 0 1 1 0 0.58
3082 218 0 56 0 0 0 1 1 0 0.429
3083 217 1 145 0 1 2 0 1 2 0.84
3084 218 0 57 2 1 0 0 0 1 0.764
3085 217 1 146 3 1 0 0 1 0 0.658
3086 218 0 58 1 1 3 1 1 3 0.891
3087 217 1 147 1 1 2 2 1 2 0.985
3088 218 0 59 3 3 3 1 1 3 0.577
3089 217 1 148 0 0 1 1 1 1 0.67
3090 218 0 60 3 2 3 0 1 3 0.626
3091 217 1 149 3 3 1 2 1 1 0.82
3092 218 0 61 2 2 0 2 0 2 0.816
3093 217 1 150 0 1 3 0 1 3 1.263
3094 218 0 62 3 3 1 1 1 1 0.469
3095 217 1 151 0 0 1 1 1 1 0.571
3096 218 0 63 2 2 3 1 1 3 0.506
