datID sessionID block trial target cue location forePeriod targetTime resp rt
1 4 0 0 3 1 1 31 7 0 0.467
2 4 0 1 0 0 3 31 7 0 0.403
3 4 0 2 3 1 2 31 7 3 0.539
4 4 0 3 3 1 3 34 7 3 0.422
5 4 0 4 2 1 2 33 7 0 0.669
6 4 0 5 1 1 2 32 7 1 0.382
7 4 0 6 2 1 3 35 7 2 0.518
8 4 0 7 2 0 0 31 7 0 0.409
9 4 0 8 0 1 0 31 7 0 0.42
10 4 0 9 2 1 3 35 7 2 0.402
11 4 0 10 0 1 3 32 7 0 0.378
12 4 0 11 1 1 1 33 7 0 0.811
13 4 0 12 2 1 1 31 7 0 0.447
14 4 0 13 1 0 2 31 7 1 0.335
15 4 0 14 2 1 3 32 7 2 0.394
16 4 0 15 2 0 1 31 7 2 0.386
17 4 0 16 1 1 0 35 7 0 0.546
18 4 0 17 2 0 1 32 7 2 0.368
19 4 0 18 0 1 3 32 7 0 0.689
20 4 0 19 2 1 3 32 7 2 0.398
21 4 0 20 2 0 3 32 7 2 0.67
22 4 0 21 2 1 2 37 7 1 0.804
23 4 0 22 2 1 3 32 7 2 0.353
24 4 0 23 2 0 1 32 7 2 0.41
25 4 0 24 2 1 1 31 7 2 0.426
26 4 0 25 0 1 1 31 7 0 0.376
27 4 0 26 1 0 0 31 7 1 0.385
28 4 0 27 0 1 1 32 7 2 0.713
29 4 0 28 0 0 0 31 7 0 0.306
30 4 0 29 3 1 0 33 7 0 0.429
31 4 0 30 2 0 2 31 7 2 0.751
32 4 0 31 0 1 1 31 7 0 0.338
33 4 0 32 1 1 1 32 7 1 0.379
34 4 0 33 3 0 0 32 7 1 1.284
35 4 0 34 0 0 3 36 7 0 0.392
36 4 0 35 3 1 3 32 7 0 0.448
37 4 0 36 2 0 3 32 7 2 1.29
38 4 0 37 0 1 0 32 7 0 0.498
39 4 0 38 0 1 3 32 7 2 0.918
40 4 0 39 3 0 0 31 7 1 0.679
41 4 0 40 2 0 2 32 7 1 0.456
42 4 0 41 3 1 2 31 7 0 0.458
43 4 0 42 0 1 0 31 7 0 0.403
44 4 0 43 1 1 1 40 7 1 0.322
45 4 0 44 1 0 0 31 7 0 0.429
46 4 0 45 3 0 3 31 7 3 0.398
47 4 0 46 2 0 1 36 7 2 0.342
48 4 0 47 3 1 0 31 7 1 0.656
49 4 0 48 3 0 1 31 7 3 0.41
50 4 0 49 1 0 0 31 7 1 0.311
51 4 0 50 1 0 3 31 7 1 0.362
52 4 0 51 0 0 2 32 7 0 0.304
53 4 0 52 0 0 2 31 7 0 0.427
54 4 0 53 0 0 0 31 7 0 0.41
55 4 0 54 1 0 2 40 7 1 0.313
56 4 0 55 0 0 3 31 7 2 0.684
57 4 0 56 0 0 1 37 7 0 0.317
58 4 0 57 3 1 3 32 7 1 0.536
59 4 0 58 1 0 3 33 7 1 0.286
60 4 0 59 0 0 2 40 7 0 0.536
61 4 0 60 3 1 0 33 7 1 0.419
62 4 0 61 2 0 0 39 7 2 0.438
63 4 0 62 2 0 1 31 7 2 0.491
64 4 0 63 3 0 3 32 7 3 0.479
65 4 1 64 2 0 3 33 7 2 0.417
66 4 1 65 1 1 3 32 7 1 0.384
67 4 1 66 1 1 2 32 7 1 0.505
68 4 1 67 2 1 2 37 7 2 0.541
69 4 1 68 1 0 3 34 7 1 0.36
70 4 1 69 3 0 2 31 7 3 0.585
71 4 1 70 0 0 0 31 7 1 0.585
72 4 1 71 0 0 0 32 7 1 0.446
73 4 1 72 3 1 0 31 7 1 0.487
74 4 1 73 2 1 2 31 7 0 0.775
75 4 1 74 0 0 0 40 7 0 0.858
76 4 1 75 2 0 1 37 7 2 0.578
77 4 1 76 0 1 2 33 7 0 0.411
78 4 1 77 2 0 2 31 7 2 0.419
79 4 1 78 1 1 2 31 7 1 0.658
80 4 1 79 3 0 3 37 7 3 0.369
81 4 1 80 3 0 3 33 7 3 0.409
82 4 1 81 2 1 1 32 7 2 0.769
83 4 1 82 0 1 1 33 7 0 0.411
84 4 1 83 2 1 1 35 7 2 0.571
85 4 1 84 1 0 1 35 7 1 0.364
86 4 1 85 3 0 2 34 7 1 0.422
87 4 1 86 1 0 2 31 7 1 0.256
88 4 1 87 0 0 2 31 7 1 0.581
89 4 1 88 1 1 0 33 7 2 1.586
90 4 1 89 1 1 3 31 7 1 0.45
91 4 1 90 2 0 0 32 7 2 0.352
92 4 1 91 3 1 1 36 7 1 0.465
93 4 1 92 3 0 2 31 7 3 0.387
94 4 1 93 1 0 0 31 7 1 0.371
95 4 1 94 0 0 0 31 7 0 0.275
96 4 1 95 2 0 3 32 7 2 0.272
97 4 1 96 0 0 1 31 7 1 0.276
98 4 1 97 3 0 2 34 7 3 0.524
99 4 1 98 0 0 2 34 7 0 0.367
100 4 1 99 2 1 0 37 7 2 0.84
101 4 1 100 3 1 1 31 7 0 0.464
102 4 1 101 0 0 3 34 7 0 0.242
103 4 1 102 2 1 1 32 7 2 0.727
104 4 1 103 2 1 3 35 7 0 0.411
105 4 1 104 1 0 1 33 7 0 0.462
106 4 1 105 2 1 3 31 7 3 0.848
107 4 1 106 2 1 3 31 7 2 0.355
108 4 1 107 3 0 1 31 7 3 0.437
109 4 1 108 3 1 1 33 7 0 0.427
110 4 1 109 0 1 1 31 7 0 0.421
111 4 1 110 0 1 3 31 7 0 0.812
112 4 1 111 1 1 3 31 7 1 0.437
113 4 1 112 3 1 3 32 7 3 0.379
114 4 1 113 1 0 0 32 7 0 0.539
115 4 1 114 1 1 2 34 7 1 0.57
116 4 1 115 3 1 0 31 7 0 0.443
117 4 1 116 2 1 3 31 7 2 0.428
118 4 1 117 2 0 1 31 7 1 0.954
119 4 1 118 1 0 3 32 7 1 0.338
120 4 1 119 2 0 3 32 7 1 0.275
121 4 1 120 3 1 3 32 7 3 0.379
122 4 1 121 3 0 1 32 7 0 0.364
123 4 1 122 1 1 1 37 7 1 0.681
124 4 1 123 3 1 2 31 7 3 0.447
125 4 1 124 3 0 3 33 7 3 0.445
126 4 1 125 2 0 0 31 7 2 0.491
127 4 1 126 3 1 2 31 7 3 0.591
128 4 1 127 1 1 2 32 7 3 0.576
129 4 2 128 3 0 1 42 7 3 0.44
130 4 2 129 0 1 0 33 7 1 0.558
131 4 2 130 3 1 0 35 7 3 0.476
132 4 2 131 2 1 0 31 7 1 0.801
133 4 2 132 2 0 0 31 7 0 0.446
134 4 2 133 3 0 2 32 7 3 0.432
135 4 2 134 3 0 0 33 7 3 0.654
136 4 2 135 2 0 3 32 7 2 0.508
137 4 2 136 1 1 1 32 7 1 0.536
138 4 2 137 1 0 3 32 7 1 0.299
139 4 2 138 0 0 2 35 7 0 0.316
140 4 2 139 0 1 3 32 7 2 0.631
141 4 2 140 2 0 2 32 7 2 0.371
142 4 2 141 1 0 0 35 7 1 0.276
143 4 2 142 2 0 0 31 7 2 0.616
144 4 2 143 3 1 1 32 7 1 0.544
145 4 2 144 0 1 3 38 7 2 0.574
146 4 2 145 0 0 3 36 7 1 0.42
147 4 2 146 1 1 2 32 7 1 0.342
148 4 2 147 1 1 1 31 7 1 0.384
149 4 2 148 2 0 3 36 7 2 0.473
150 4 2 149 1 1 3 31 7 1 0.374
151 4 2 150 2 1 2 36 7 2 0.462
152 4 2 151 1 0 2 32 7 1 0.548
153 4 2 152 3 1 0 33 7 1 0.573
154 4 2 153 2 0 3 32 7 1 0.41
155 4 2 154 1 1 1 34 7 2 0.443
156 4 2 155 3 1 3 31 7 3 0.477
157 4 2 156 2 0 2 31 7 2 0.697
158 4 2 157 2 0 2 31 7 2 0.319
159 4 2 158 3 1 2 33 7 3 0.465
160 4 2 159 3 1 3 31 7 3 0.439
161 4 2 160 2 0 2 31 7 2 0.597
162 4 2 161 2 1 1 31 7 1 0.662
163 4 2 162 3 1 1 32 7 1 0.528
164 4 2 163 1 1 2 31 7 1 0.399
165 4 2 164 0 1 0 31 7 1 0.623
166 4 2 165 2 0 0 31 7 2 0.387
167 4 2 166 3 1 0 31 7 2 0.504
168 4 2 167 2 0 1 31 7 2 0.4
169 4 2 168 3 1 1 32 7 3 0.488
170 4 2 169 3 0 2 35 7 3 0.373
171 4 2 170 3 0 2 33 7 3 0.349
172 4 2 171 0 1 2 31 7 1 0.647
173 4 2 172 1 1 2 33 7 1 0.306
174 4 2 173 0 0 1 32 7 0 0.333
175 4 2 174 1 0 2 32 7 1 0.326
176 4 2 175 1 1 1 31 7 3 0.744
177 4 2 176 1 0 3 32 7 1 0.327
178 4 2 177 3 0 3 36 7 3 0.402
179 4 2 178 1 0 3 31 7 1 0.25
180 4 2 179 0 1 2 31 7 0 0.343
181 4 2 180 1 0 0 32 7 1 0.393
182 4 2 181 2 1 1 35 7 2 0.312
183 4 2 182 1 1 0 31 7 3 0.659
184 4 2 183 1 1 0 31 7 2 0.485
185 4 2 184 3 1 2 31 7 3 0.389
186 4 2 185 0 0 0 31 7 0 0.309
187 4 2 186 0 1 2 31 7 2 0.833
188 4 2 187 0 0 1 32 7 0 0.301
189 4 2 188 3 0 3 31 7 3 0.441
190 4 2 189 3 0 3 33 7 3 0.68
191 4 2 190 0 0 3 31 7 0 0.397
192 4 2 191 3 1 2 31 7 3 0.534
193 4 3 192 0 0 3 32 7 0 0.418
194 4 3 193 3 1 1 32 7 3 0.401
195 4 3 194 1 0 1 31 7 1 0.241
196 4 3 195 0 0 1 33 7 0 0.311
197 4 3 196 2 0 0 32 7 2 0.426
198 4 3 197 0 0 1 31 7 0 0.312
199 4 3 198 3 1 0 45 7 3 0.444
200 4 3 199 0 1 2 32 7 0 0.298
201 4 3 200 3 1 2 37 7 3 0.334
202 4 3 201 0 1 1 37 7 0 0.744
203 4 3 202 3 1 1 33 7 3 0.347
204 4 3 203 0 0 1 31 7 0 0.277
205 4 3 204 0 0 2 34 7 0 0.242
206 4 3 205 2 1 1 32 7 2 0.447
207 4 3 206 1 1 0 31 7 2 0.357
208 4 3 207 2 1 0 34 7 2 0.458
209 4 3 208 2 1 3 31 7 2 0.304
210 4 3 209 1 0 0 32 7 1 0.347
211 4 3 210 1 0 0 32 7 1 0.381
212 4 3 211 3 1 2 31 7 0 0.462
213 4 3 212 1 0 3 31 7 1 0.335
214 4 3 213 0 0 1 37 7 0 0.305
215 4 3 214 2 1 0 32 7 2 0.46
216 4 3 215 2 0 2 31 7 2 0.33
217 4 3 216 3 0 0 31 7 3 0.525
218 4 3 217 2 0 1 32 7 1 0.216
219 4 3 218 1 1 1 34 7 2 0.426
220 4 3 219 3 0 3 34 7 3 0.44
221 4 3 220 2 0 1 31 7 2 0.414
222 4 3 221 1 1 3 32 7 1 0.422
223 4 3 222 3 1 0 33 7 3 0.477
224 4 3 223 1 0 3 31 7 1 0.338
225 4 3 224 2 1 0 31 7 2 0.452
226 4 3 225 1 0 1 33 7 1 0.297
227 4 3 226 3 0 2 35 7 3 0.645
228 4 3 227 1 0 1 31 7 1 0.276
229 4 3 228 0 0 1 36 7 0 0.368
230 4 3 229 2 1 0 32 7 2 0.497
231 4 3 230 2 1 0 32 7 2 0.422
232 4 3 231 2 1 2 31 7 0 0.893
233 4 3 232 1 0 2 31 7 1 0.294
234 4 3 233 0 1 1 33 7 0 0.377
235 4 3 234 0 1 3 31 7 0 0.369
236 4 3 235 1 1 0 31 7 2 0.618
237 4 3 236 0 1 1 36 7 0 0.501
238 4 3 237 1 0 1 32 7 1 0.537
239 4 3 238 2 1 2 31 7 2 0.524
240 4 3 239 2 0 0 31 7 2 0.487
241 4 3 240 1 1 2 31 7 1 0.716
242 4 3 241 1 1 0 31 7 1 0.329
243 4 3 242 1 1 2 31 7 1 0.347
244 4 3 243 1 0 2 34 7 1 0.244
245 4 3 244 0 1 3 32 7 0 0.393
246 4 3 245 0 1 2 31 7 1 0.641
247 4 3 246 1 0 3 32 7 1 0.34
248 4 3 247 1 1 0 35 7 1 0.358
249 4 3 248 1 0 2 43 7 1 0.423
250 4 3 249 1 0 2 32 7 1 0.262
251 4 3 250 0 0 3 31 7 0 0.363
252 4 3 251 1 0 1 34 7 1 0.332
253 4 3 252 3 1 3 31 7 1 0.471
254 4 3 253 3 1 3 37 7 3 0.48
255 4 3 254 0 1 1 33 7 0 0.277
256 4 3 255 1 1 3 33 7 1 0.385
257 4 4 256 0 1 2 38 7 0 0.423
258 4 4 257 0 1 0 31 7 0 0.454
259 4 4 258 1 0 1 31 7 1 0.323
260 4 4 259 0 0 2 31 7 0 0.742
261 4 4 260 2 0 3 34 7 2 0.434
262 4 4 261 3 1 3 33 7 0 0.504
263 4 4 262 0 1 0 31 7 0 0.456
264 4 4 263 0 1 0 31 7 0 0.31
265 4 4 264 0 1 1 32 7 0 0.354
266 4 4 265 0 0 3 31 7 0 0.403
267 4 4 266 2 1 1 33 7 2 0.338
268 4 4 267 1 1 3 38 7 1 0.34
269 4 4 268 0 1 2 31 7 0 0.414
270 4 4 269 3 0 1 34 7 0 0.397
271 4 4 270 1 1 0 31 7 1 0.345
272 4 4 271 2 1 0 31 7 3 0.619
273 4 4 272 1 1 3 32 7 1 0.334
274 4 4 273 2 1 2 35 7 2 0.337
275 4 4 274 3 0 1 33 7 0 0.787
276 4 4 275 1 0 1 31 7 1 0.368
277 4 4 276 0 1 0 32 7 0 0.425
278 4 4 277 2 0 0 32 7 1 0.776
279 4 4 278 0 0 0 31 7 0 0.574
280 4 4 279 1 1 0 37 7 1 0.383
281 4 4 280 0 0 3 31 7 0 0.376
282 4 4 281 3 0 0 31 7 3 0.465
283 4 4 282 1 0 2 31 7 1 0.294
284 4 4 283 3 0 1 31 7 0 0.394
285 4 4 284 2 1 1 32 7 1 0.526
286 4 4 285 1 0 1 31 7 1 0.333
287 4 4 286 3 0 0 31 7 3 0.591
288 4 4 287 3 0 2 35 7 3 0.288
289 4 4 288 3 0 1 35 7 3 0.348
290 4 4 289 2 0 2 35 7 2 0.598
291 4 4 290 0 0 2 31 7 0 0.319
292 4 4 291 3 0 1 34 7 3 0.425
293 4 4 292 3 0 0 33 7 3 0.56
294 4 4 293 0 1 2 33 7 3 0.554
295 4 4 294 2 0 2 32 7 2 0.48
296 4 4 295 1 1 1 37 7 1 0.309
297 4 4 296 3 0 0 31 7 3 0.392
298 4 4 297 3 0 0 31 7 3 0.456
299 4 4 298 0 1 3 31 7 0 0.286
300 4 4 299 2 1 2 32 7 2 0.409
301 4 4 300 1 1 3 31 7 1 0.417
302 4 4 301 0 0 0 31 7 0 0.352
303 4 4 302 2 1 2 38 7 2 0.346
304 4 4 303 2 1 0 31 7 2 0.444
305 4 4 304 3 0 0 31 7 3 0.401
306 4 4 305 3 1 2 34 7 3 0.393
307 4 4 306 3 0 1 31 7 3 0.305
308 4 4 307 2 0 3 31 7 2 0.477
309 4 4 308 0 1 0 31 7 1 0.658
310 4 4 309 1 1 3 31 7 1 0.348
311 4 4 310 3 0 2 36 7 3 0.438
312 4 4 311 1 0 0 31 7 1 0.428
313 4 4 312 2 1 0 32 7 2 0.427
314 4 4 313 0 1 3 31 7 2 0.69
315 4 4 314 0 0 0 35 7 0 0.355
316 4 4 315 3 1 1 37 7 0 0.572
317 4 4 316 0 1 2 33 7 0 0.433
318 4 4 317 0 0 2 33 7 1 0.44
319 4 4 318 3 0 3 34 7 3 0.498
320 4 4 319 0 0 1 33 7 0 0.31
321 6 0 0 2 1 1 35 7 0 0.976
322 6 0 1 0 0 0 37 7 0 0.574
323 6 0 2 2 0 2 34 7 2 1.703
324 6 0 3 0 0 3 32 7 2 0.828
325 6 0 4 0 0 2 32 7 1 0.648
326 6 0 5 0 1 3 31 7 1 1.746
327 6 0 6 2 0 2 35 7 1 0.908
328 6 0 7 2 1 2 32 7 1 0.981
329 6 0 8 2 0 2 31 7 2 0.779
330 6 0 9 1 0 1 33 7 1 1.421
331 6 0 10 2 0 0 33 7 1 0.639
332 6 0 11 3 1 2 32 7 1 1.085
333 6 0 12 1 0 0 35 7 1 0.927
334 6 0 13 0 1 1 33 7 1 1.979
335 6 0 14 1 0 1 32 7 1 1.101
336 6 0 15 0 1 3 32 7 3 2.027
337 6 0 16 3 1 1 33 7 1 0.803
338 6 0 17 1 1 1 31 7 1 0.872
339 6 0 18 3 1 0 32 7 2 1.013
340 6 0 19 1 1 2 32 7 1 0.826
341 6 0 20 0 1 2 33 7 1 1.194
342 6 0 21 2 1 0 32 7 1 0.785
343 6 0 22 3 0 0 37 7 2 0.829
344 6 0 23 1 1 3 32 7 2 2.273
345 6 0 24 1 1 0 32 7 1 0.921
346 6 0 25 2 0 1 31 7 2 1.485
347 6 0 26 3 1 2 33 7 3 1.686
348 6 0 27 2 0 3 31 7 2 0.799
349 6 0 28 1 0 0 32 7 1 0.632
350 6 0 29 0 0 2 32 7 3 1.239
351 6 0 30 0 0 1 31 7 1 0.643
352 6 0 31 0 1 3 31 7 0 0.966
353 6 0 32 2 1 0 31 7 1 0.753
354 6 0 33 1 1 2 34 7 2 0.711
355 6 0 34 2 0 1 31 7 1 0.671
356 6 0 35 1 0 0 36 7 1 1.119
357 6 0 36 0 1 2 31 7 3 1.108
358 6 0 37 3 0 1 35 7 3 0.75
359 6 0 38 2 0 2 32 7 2 0.793
360 6 0 39 1 0 3 31 7 1 0.65
361 6 0 40 3 1 3 32 7 1 1
362 6 0 41 1 1 0 33 7 2 1.55
363 6 0 42 3 0 2 31 7 3 0.807
364 6 0 43 3 0 2 33 7 3 0.432
365 6 0 44 1 1 0 34 7 2 1.006
366 6 0 45 2 1 1 41 7 0 0.739
367 6 0 46 3 0 2 33 7 3 0.897
368 6 0 47 2 0 1 31 7 1 0.806
369 6 0 48 2 0 2 31 7 2 1.018
370 6 0 49 2 1 3 33 7 3 0.859
371 6 0 50 2 1 2 32 7 2 1.525
372 6 0 51 2 1 2 31 7 2 0.628
373 6 0 52 2 1 3 32 7 2 1.259
374 6 0 53 1 1 1 34 7 1 0.779
375 6 0 54 2 1 1 33 7 2 0.701
376 6 0 55 2 1 3 31 7 2 0.665
377 6 0 56 1 1 2 36 7 1 0.647
378 6 0 57 2 0 2 33 7 2 0.774
379 6 0 58 0 1 3 31 7 3 0.864
380 6 0 59 0 1 2 32 7 2 0.762
381 6 0 60 0 0 1 32 7 0 0.76
382 6 0 61 3 1 3 32 7 3 0.77
383 6 0 62 3 0 2 32 7 2 0.836
384 6 0 63 3 1 3 31 7 2 0.839
385 6 1 64 3 0 2 37 7 2 0.629
386 6 1 65 1 1 0 32 7 1 0.968
387 6 1 66 0 1 2 34 7 3 1.098
388 6 1 67 2 0 3 33 7 2 0.66
389 6 1 68 3 1 3 32 7 3 0.81
390 6 1 69 3 0 0 35 7 3 0.946
391 6 1 70 1 0 0 32 7 1 0.75
392 6 1 71 0 1 3 33 7 3 0.905
393 6 1 72 0 1 2 32 7 1 1.177
394 6 1 73 0 1 3 32 7 3 0.833
395 6 1 74 1 0 3 32 7 0 0.74
396 6 1 75 1 0 1 34 7 2 1.035
397 6 1 76 2 0 2 31 7 1 0.823
398 6 1 77 1 1 1 33 7 3 0.922
399 6 1 78 2 1 1 32 7 0 0.485
400 6 1 79 2 0 0 34 7 2 0.965
401 6 1 80 0 1 1 31 7 3 1.183
402 6 1 81 2 1 2 32 7 0 1.19
403 6 1 82 3 1 0 31 7 1 0.837
404 6 1 83 1 1 2 33 7 2 1.047
405 6 1 84 3 0 0 33 7 2 0.929
406 6 1 85 1 1 2 32 7 0 0.569
407 6 1 86 2 1 0 35 7 2 0.678
408 6 1 87 2 1 0 35 7 2 0.748
409 6 1 88 1 1 2 33 7 1 0.959
410 6 1 89 1 1 3 33 7 2 0.786
411 6 1 90 1 0 3 31 7 2 0.998
412 6 1 91 2 0 0 33 7 1 1.092
413 6 1 92 2 1 2 31 7 2 0.834
414 6 1 93 2 1 0 36 7 1 1.722
415 6 1 94 3 0 0 35 7 2 0.613
416 6 1 95 1 1 3 32 7 3 0.568
417 6 1 96 2 0 0 32 7 2 0.941
418 6 1 97 2 1 3 35 7 2 0.944
419 6 1 98 2 0 1 33 7 2 0.836
420 6 1 99 3 1 0 31 7 1 1.18
421 6 1 100 3 1 2 33 7 2 1.379
422 6 1 101 2 0 3 35 7 2 0.843
423 6 1 102 1 0 1 32 7 1 0.882
424 6 1 103 3 0 1 31 7 3 0.744
425 6 1 104 1 0 2 38 7 2 1.491
426 6 1 105 0 0 2 31 7 0 0.655
427 6 1 106 2 1 1 33 7 2 0.933
428 6 1 107 2 1 1 40 7 2 0.753
429 6 1 108 0 0 3 32 7 1 0.764
430 6 1 109 1 1 3 33 7 2 0.826
431 6 1 110 3 0 1 33 7 3 0.901
432 6 1 111 0 0 1 32 7 2 0.834
433 6 1 112 0 1 0 32 7 1 1.077
434 6 1 113 1 0 3 33 7 2 0.847
435 6 1 114 2 0 2 31 7 2 0.738
436 6 1 115 2 1 1 31 7 1 0.868
437 6 1 116 2 0 1 31 7 2 0.83
438 6 1 117 1 0 2 31 7 1 0.582
439 6 1 118 0 0 1 31 7 1 0.823
440 6 1 119 0 0 0 32 7 2 0.763
441 6 1 120 3 0 3 31 7 3 0.569
442 6 1 121 2 1 2 31 7 1 1.314
443 6 1 122 0 0 2 36 7 1 0.812
444 6 1 123 2 1 0 31 7 2 0.104
445 6 1 124 0 0 3 31 7 2 0.554
446 6 1 125 0 0 0 31 7 0 0.687
447 6 1 126 3 0 1 31 7 3 0.764
448 6 1 127 3 0 0 32 7 3 0.717
449 6 2 128 0 1 2 32 7 2 0.941
450 6 2 129 0 0 0 35 7 0 1.061
451 6 2 130 1 0 0 34 7 1 1.109
452 6 2 131 1 1 0 31 7 1 0.594
453 6 2 132 3 1 2 33 7 3 0.851
454 6 2 133 2 1 3 31 7 1 1.05
455 6 2 134 0 1 0 33 7 3 0.877
456 6 2 135 1 0 0 32 7 1 0.663
457 6 2 136 3 1 2 34 7 3 1.597
458 6 2 137 1 1 0 34 7 3 0.817
459 6 2 138 0 1 0 31 7 2 0.629
460 6 2 139 2 0 3 33 7 3 0.952
461 6 2 140 3 0 3 33 7 3 0.679
462 6 2 141 0 0 3 33 7 2 0.844
463 6 2 142 1 1 1 32 7 0 1.575
464 6 2 143 1 1 1 34 7 1 1.536
465 6 2 144 2 0 0 33 7 2 0.791
466 6 2 145 1 0 1 36 7 2 0.72
467 6 2 146 1 1 3 31 7 2 1.095
468 6 2 147 1 1 2 31 7 3 1.449
469 6 2 148 2 0 1 36 7 2 0.79
470 6 2 149 3 0 1 32 7 3 1.119
471 6 2 150 1 0 2 32 7 1 0.757
472 6 2 151 1 0 3 33 7 1 0.703
473 6 2 152 3 0 0 32 7 3 0.875
474 6 2 153 1 1 3 32 7 3 0.872
475 6 2 154 3 1 3 33 7 3 0.666
476 6 2 155 3 1 1 33 7 3 0.664
477 6 2 156 2 1 3 41 7 2 0.75
478 6 2 157 3 1 3 35 7 3 0.569
479 6 2 158 0 1 0 31 7 1 0.882
480 6 2 159 1 1 3 35 7 1 0.747
481 6 2 160 1 0 2 32 7 1 0.63
482 6 2 161 0 1 3 33 7 2 0.726
483 6 2 162 3 1 0 35 7 3 0.693
484 6 2 163 2 0 3 32 7 3 0.722
485 6 2 164 1 1 2 31 7 1 0.897
486 6 2 165 1 1 1 37 7 1 0.806
487 6 2 166 3 1 3 31 7 3 0.727
488 6 2 167 3 0 1 35 7 3 0.739
489 6 2 168 0 1 2 33 7 3 0.582
490 6 2 169 3 1 2 31 7 3 0.554
491 6 2 170 3 1 1 31 7 3 0.58
492 6 2 171 3 1 0 35 7 3 0.637
493 6 2 172 2 0 0 34 7 2 0.731
494 6 2 173 2 1 0 35 7 2 0.607
495 6 2 174 1 1 3 31 7 3 0.639
496 6 2 175 0 1 1 31 7 0 1.329
497 6 2 176 3 1 0 36 7 3 0.662
498 6 2 177 1 0 1 32 7 2 0.634
499 6 2 178 0 1 1 34 7 1 0.588
500 6 2 179 2 1 1 34 7 2 0.688
501 6 2 180 1 0 2 31 7 1 0.669
502 6 2 181 2 0 1 37 7 2 0.715
503 6 2 182 3 0 3 31 7 3 0.735
504 6 2 183 3 1 1 31 7 3 0.986
505 6 2 184 3 0 3 34 7 3 0.724
506 6 2 185 1 1 1 32 7 2 0.791
507 6 2 186 3 0 1 31 7 3 0.588
508 6 2 187 0 0 3 31 7 2 1.157
509 6 2 188 1 0 1 33 7 1 0.604
510 6 2 189 3 0 1 35 7 3 1.132
511 6 2 190 0 0 0 34 7 2 1.681
512 6 2 191 3 1 3 31 7 3 0.87
513 6 3 192 0 0 1 33 7 2 0.749
514 6 3 193 0 0 0 32 7 1 0.732
515 6 3 194 3 1 0 31 7 3 1.747
516 6 3 195 0 1 0 33 7 0 0.689
517 6 3 196 1 0 0 34 7 1 0.646
518 6 3 197 2 0 2 34 7 2 0.829
519 6 3 198 0 0 0 32 7 1 0.742
520 6 3 199 1 0 3 32 7 3 0.732
521 6 3 200 0 0 2 40 7 3 1.651
522 6 3 201 2 0 3 32 7 2 0.809
523 6 3 202 3 0 1 31 7 3 0.61
524 6 3 203 1 0 0 31 7 2 0.762
525 6 3 204 3 0 0 35 7 3 0.545
526 6 3 205 1 0 2 31 7 2 0.755
527 6 3 206 1 0 2 32 7 1 0.649
528 6 3 207 1 1 3 31 7 3 0.735
529 6 3 208 0 0 2 33 7 0 0.765
530 6 3 209 2 0 0 31 7 2 0.768
531 6 3 210 0 1 1 32 7 1 1.034
532 6 3 211 1 0 3 31 7 2 1.022
533 6 3 212 3 0 1 31 7 3 0.578
534 6 3 213 1 0 1 34 7 1 0.651
535 6 3 214 2 1 2 31 7 2 0.809
536 6 3 215 0 0 3 31 7 2 0.73
537 6 3 216 3 1 1 34 7 2 0.881
538 6 3 217 1 1 0 32 7 3 0.659
539 6 3 218 3 1 2 33 7 0 0.436
540 6 3 219 0 0 2 37 7 1 0.062
541 6 3 220 3 0 0 37 7 3 0.772
542 6 3 221 0 0 1 33 7 0 0.926
543 6 3 222 1 0 0 31 7 3 1.099
544 6 3 223 1 1 3 32 7 2 0.836
545 6 3 224 1 0 3 32 7 1 0.68
546 6 3 225 2 1 2 32 7 1 0.853
547 6 3 226 0 0 0 31 7 3 0.967
548 6 3 227 1 0 3 35 7 2 1.534
549 6 3 228 0 0 3 33 7 1 0.536
550 6 3 229 2 1 1 31 7 1 0.565
551 6 3 230 3 1 2 32 7 3 0.318
552 6 3 231 1 0 0 31 7 2 0.904
553 6 3 232 1 1 1 34 7 3 0.792
554 6 3 233 0 0 2 31 7 0 0.94
555 6 3 234 2 1 2 32 7 2 0.888
556 6 3 235 0 0 1 31 7 2 0.677
557 6 3 236 3 1 1 31 7 1 0.654
558 6 3 237 3 0 2 32 7 3 0.568
559 6 3 238 2 1 0 31 7 2 0.745
560 6 3 239 3 1 3 33 7 3 0.788
561 6 3 240 3 0 3 37 7 3 0.525
562 6 3 241 3 1 0 33 7 3 0.632
563 6 3 242 0 1 1 31 7 1 0.791
564 6 3 243 0 1 0 33 7 0 1.116
565 6 3 244 0 0 2 31 7 2 0.721
566 6 3 245 0 0 2 32 7 1 0.622
567 6 3 246 3 0 3 34 7 3 0.641
568 6 3 247 2 1 3 31 7 0 1.087
569 6 3 248 2 1 1 31 7 2 0.865
570 6 3 249 3 1 1 32 7 2 0.744
571 6 3 250 0 1 0 33 7 1 1.007
572 6 3 251 3 0 2 31 7 3 0.716
573 6 3 252 3 1 0 31 7 3 0.832
574 6 3 253 0 1 3 32 7 0 0.888
575 6 3 254 0 0 0 33 7 0 0.59
576 6 3 255 0 0 3 35 7 3 0.558
577 6 4 256 2 0 1 32 7 2 0.78
578 6 4 257 3 0 3 31 7 3 0.582
579 6 4 258 2 1 0 40 7 0 1.039
580 6 4 259 3 1 1 34 7 3 1.091
581 6 4 260 2 1 3 37 7 3 0.762
582 6 4 261 1 0 1 31 7 1 0.616
583 6 4 262 0 0 3 33 7 2 0.855
584 6 4 263 2 0 1 37 7 2 0.81
585 6 4 264 2 0 3 31 7 2 0.554
586 6 4 265 2 0 0 31 7 2 0.612
587 6 4 266 3 0 2 32 7 3 0.636
588 6 4 267 0 0 1 34 7 2 0.826
589 6 4 268 3 0 2 33 7 3 0.59
590 6 4 269 3 0 3 32 7 3 0.51
591 6 4 270 0 1 1 32 7 1 0.961
592 6 4 271 1 1 2 31 7 2 0.816
593 6 4 272 0 1 1 31 7 2 0.924
594 6 4 273 0 1 1 32 7 0 1.54
595 6 4 274 0 1 2 34 7 3 0.779
596 6 4 275 2 0 3 33 7 2 0.752
597 6 4 276 1 0 2 32 7 1 0.642
598 6 4 277 0 0 0 33 7 1 0.761
599 6 4 278 3 0 2 32 7 3 0.671
600 6 4 279 1 0 2 31 7 1 0.676
601 6 4 280 3 1 2 35 7 3 0.794
602 6 4 281 3 1 2 31 7 3 0.627
603 6 4 282 1 1 1 31 7 1 1.034
604 6 4 283 2 0 0 31 7 2 1.075
605 6 4 284 1 1 0 38 7 2 0.634
606 6 4 285 0 0 3 31 7 3 0.66
607 6 4 286 0 1 0 32 7 0 0.533
608 6 4 287 2 0 0 31 7 2 0.72
609 6 4 288 1 1 1 31 7 1 1.148
610 6 4 289 1 1 2 31 7 1 1.168
611 6 4 290 0 0 1 31 7 1 0.844
612 6 4 291 2 0 2 31 7 1 0.679
613 6 4 292 3 1 0 37 7 2 0.76
614 6 4 293 0 1 3 32 7 3 0.614
615 6 4 294 3 1 3 34 7 3 0.617
616 6 4 295 3 0 0 37 7 3 0.689
617 6 4 296 3 1 1 34 7 0 1.896
618 6 4 297 2 0 1 31 7 1 0.757
619 6 4 298 3 0 3 31 7 3 0.667
620 6 4 299 1 0 1 31 7 1 0.889
621 6 4 300 3 0 3 32 7 3 0.783
622 6 4 301 1 0 2 32 7 1 2.048
623 6 4 302 2 1 2 37 7 3 0.692
624 6 4 303 0 0 1 31 7 0 0.637
625 6 4 304 0 1 2 33 7 1 0.707
626 6 4 305 1 1 0 34 7 2 1.011
627 6 4 306 0 1 0 31 7 0 1.488
628 6 4 307 0 1 1 31 7 1 0.688
629 6 4 308 2 0 3 31 7 3 1.136
630 6 4 309 2 1 3 32 7 2 0.785
631 6 4 310 2 1 3 31 7 2 0.634
632 6 4 311 3 1 1 31 7 3 0.736
633 6 4 312 1 0 3 32 7 1 0.587
634 6 4 313 2 1 0 32 7 2 1.148
635 6 4 314 2 0 3 34 7 3 0.729
636 6 4 315 0 1 3 31 7 0 0.72
637 6 4 316 3 0 0 34 7 3 0.819
638 6 4 317 0 1 0 31 7 3 0.843
639 6 4 318 0 1 2 32 7 3 1.086
640 6 4 319 1 1 0 31 7 1 0.736
641 9 0 0 0 1 0 34 7 1 2.027
642 9 0 1 0 1 0 31 7 0 0.556
643 9 0 2 1 1 0 31 7 1 0.686
644 9 0 3 3 0 1 31 7 3 3.299
645 9 0 4 3 1 0 32 7 2 2.379
646 9 0 5 2 1 2 36 7 1 4.68
647 9 0 6 0 0 0 34 7 1 0.938
648 9 0 7 2 1 1 32 7 0 0.793
649 9 0 8 2 1 3 31 7 2 1.231
650 9 0 9 2 1 1 31 7 2 4.281
651 9 0 10 0 1 2 31 7 0 0.838
652 9 0 11 1 0 0 31 7 1 0.63
653 9 0 12 2 0 1 31 7 1 0.782
654 9 0 13 2 1 0 31 7 1 0.66
655 9 0 14 0 1 0 39 7 2 0.71
656 9 0 15 3 0 3 31 7 1 0.655
657 9 0 16 2 1 3 32 7 2 0.897
658 9 0 17 3 1 2 32 7 1 1.071
659 9 0 18 3 1 2 31 7 3 2.41
660 9 0 19 0 1 1 33 7 3 4.282
661 9 0 20 3 0 3 31 7 1 1.106
662 9 0 21 2 0 2 31 7 2 1.141
663 9 0 22 2 1 3 31 7 2 1.05
664 9 0 23 0 1 3 38 7 2 0.882
665 9 0 24 2 0 3 31 7 2 1.189
666 9 0 25 0 0 2 33 7 2 0.72
667 9 0 26 3 0 0 31 7 3 0.656
668 9 0 27 0 0 1 31 7 3 1.671
669 9 0 28 2 0 3 33 7 1 0.949
670 9 0 29 3 0 0 37 7 3 0.652
671 9 0 30 0 0 2 31 7 2 0.771
672 9 0 31 1 1 1 31 7 0 0.865
673 9 0 32 0 0 1 31 7 1 3.281
674 9 0 33 3 0 2 32 7 3 0.517
675 9 0 34 2 1 0 31 7 3 0.697
676 9 0 35 0 1 2 40 7 1 5.354
677 9 0 36 3 0 3 35 7 3 0.604
678 9 0 37 2 0 0 31 7 1 0.692
679 9 0 38 1 0 3 37 7 2 1.235
680 9 0 39 0 1 3 32 7 0 0.737
681 9 0 40 1 0 1 32 7 1 0.572
682 9 0 41 0 0 2 33 7 1 1.206
683 9 0 42 0 0 3 32 7 1 2.484
684 9 0 43 0 1 3 31 7 0 0.829
685 9 0 44 0 1 2 32 7 0 0.574
686 9 0 45 3 0 0 36 7 3 0.527
687 9 0 46 2 0 2 31 7 2 0.763
688 9 0 47 2 0 2 31 7 2 0.71
689 9 0 48 3 0 1 32 7 3 0.522
690 9 0 49 1 0 1 32 7 3 0.55
691 9 0 50 2 1 3 31 7 2 0.756
692 9 0 51 0 1 1 32 7 2 0.791
693 9 0 52 3 0 2 31 7 3 0.564
694 9 0 53 1 1 2 32 7 2 3.071
695 9 0 54 3 0 1 32 7 3 0.491
696 9 0 55 1 0 3 34 7 1 1.407
697 9 0 56 3 1 3 31 7 0 0.779
698 9 0 57 2 1 0 31 7 1 1.281
699 9 0 58 2 0 3 32 7 2 0.805
700 9 0 59 1 1 1 32 7 3 0.942
701 9 0 60 3 0 3 31 7 3 1.334
702 9 0 61 1 1 0 34 7 1 0.981
703 9 0 62 2 0 1 31 7 2 0.752
704 9 0 63 0 0 2 34 7 1 0.702
705 9 1 64 2 0 1 34 7 2 1.436
706 9 1 65 1 0 2 31 7 1 1.494
707 9 1 66 1 0 2 34 7 1 0.471
708 9 1 67 2 0 3 34 7 1 0.498
709 9 1 68 1 1 1 31 7 1 0.546
710 9 1 69 2 1 0 31 7 2 0.74
711 9 1 70 3 1 3 36 7 2 3.904
712 9 1 71 3 1 3 36 7 3 0.63
713 9 1 72 1 0 2 31 7 1 0.597
714 9 1 73 2 1 1 32 7 1 0.622
715 9 1 74 2 0 0 32 7 2 0.914
716 9 1 75 0 0 1 35 7 0 0.638
717 9 1 76 3 0 1 38 7 3 0.573
718 9 1 77 2 1 2 35 7 2 1.511
719 9 1 78 3 1 1 39 7 3 0.503
720 9 1 79 2 1 0 31 7 1 0.851
721 9 1 80 0 0 1 33 7 0 0.486
722 9 1 81 0 1 1 31 7 0 0.435
723 9 1 82 3 1 1 31 7 3 0.481
724 9 1 83 2 0 0 31 7 2 1.494
725 9 1 84 3 1 3 31 7 3 0.571
726 9 1 85 3 1 3 32 7 3 0.428
727 9 1 86 2 0 3 36 7 1 1.811
728 9 1 87 3 0 3 32 7 3 0.548
729 9 1 88 2 1 2 31 7 2 0.855
730 9 1 89 3 1 1 35 7 3 0.622
731 9 1 90 3 1 2 32 7 3 0.854
732 9 1 91 3 1 0 32 7 2 0.861
733 9 1 92 0 0 3 33 7 0 0.776
734 9 1 93 1 1 1 32 7 0 0.587
735 9 1 94 3 0 3 31 7 3 1.535
736 9 1 95 2 0 0 31 7 2 0.718
737 9 1 96 0 0 3 33 7 1 1.426
738 9 1 97 1 0 2 31 7 2 1.089
739 9 1 98 2 0 0 37 7 1 0.564
740 9 1 99 2 0 1 33 7 1 0.602
741 9 1 100 2 1 2 49 7 2 0.926
742 9 1 101 0 0 3 32 7 2 0.963
743 9 1 102 1 0 0 33 7 1 0.506
744 9 1 103 0 0 1 40 7 1 0.582
745 9 1 104 0 1 1 32 7 0 0.579
746 9 1 105 0 1 1 39 7 0 0.517
747 9 1 106 3 1 0 31 7 3 0.601
748 9 1 107 2 0 0 31 7 1 0.865
749 9 1 108 3 1 3 33 7 2 0.796
750 9 1 109 2 1 2 34 7 1 0.537
751 9 1 110 2 0 2 36 7 2 0.816
752 9 1 111 1 0 2 32 7 1 0.913
753 9 1 112 1 1 2 34 7 2 0.751
754 9 1 113 1 1 0 33 7 1 2.157
755 9 1 114 1 0 1 34 7 1 0.494
756 9 1 115 0 0 0 31 7 1 0.563
757 9 1 116 0 0 1 34 7 2 0.897
758 9 1 117 1 1 2 31 7 1 0.578
759 9 1 118 0 0 2 32 7 1 0.828
760 9 1 119 3 0 2 31 7 3 0.584
761 9 1 120 0 0 0 31 7 1 0.728
762 9 1 121 3 0 0 31 7 3 0.64
763 9 1 122 0 0 1 32 7 0 0.647
764 9 1 123 3 0 3 31 7 3 0.695
765 9 1 124 0 0 1 31 7 3 0.652
766 9 1 125 0 0 1 33 7 2 1.174
767 9 1 126 0 1 0 33 7 0 0.646
768 9 1 127 2 0 2 35 7 2 1.109
769 9 2 128 3 1 3 37 7 3 0.531
770 9 2 129 1 1 2 31 7 1 0.694
771 9 2 130 0 0 0 35 7 0 0.5
772 9 2 131 0 1 0 31 7 0 0.504
773 9 2 132 3 0 0 34 7 3 0.476
774 9 2 133 1 0 2 32 7 1 0.537
775 9 2 134 0 1 0 32 7 3 0.868
776 9 2 135 2 0 1 31 7 2 0.822
777 9 2 136 0 0 2 32 7 0 0.463
778 9 2 137 2 0 2 31 7 2 0.821
779 9 2 138 1 1 1 32 7 0 0.461
780 9 2 139 1 0 3 31 7 1 0.671
781 9 2 140 1 1 0 32 7 0 0.637
782 9 2 141 0 0 0 33 7 0 0.503
783 9 2 142 3 1 2 31 7 3 1.043
784 9 2 143 0 1 1 35 7 0 2.044
785 9 2 144 2 1 2 34 7 2 0.809
786 9 2 145 2 1 0 33 7 0 0.682
787 9 2 146 1 1 2 31 7 1 0.748
788 9 2 147 3 1 0 31 7 3 0.583
789 9 2 148 1 1 1 34 7 1 0.512
790 9 2 149 3 0 0 31 7 3 0.508
791 9 2 150 3 1 2 31 7 2 1.504
792 9 2 151 3 1 0 34 7 3 0.532
793 9 2 152 0 1 0 36 7 0 0.735
794 9 2 153 1 0 1 32 7 0 0.891
795 9 2 154 3 0 3 31 7 3 0.533
796 9 2 155 2 1 2 32 7 2 3.832
797 9 2 156 3 1 2 32 7 3 0.581
798 9 2 157 2 1 3 33 7 3 0.598
799 9 2 158 2 0 1 34 7 2 0.539
800 9 2 159 2 1 3 31 7 3 0.541
801 9 2 160 2 1 1 31 7 2 0.78
802 9 2 161 3 1 1 34 7 2 0.614
803 9 2 162 3 0 3 31 7 3 0.658
804 9 2 163 2 0 1 32 7 2 0.481
805 9 2 164 1 0 0 31 7 0 0.534
806 9 2 165 1 1 1 33 7 0 0.556
807 9 2 166 2 0 0 31 7 2 0.682
808 9 2 167 1 1 3 33 7 3 0.903
809 9 2 168 0 0 2 31 7 0 0.472
810 9 2 169 0 0 3 33 7 0 0.454
811 9 2 170 3 1 1 32 7 3 0.555
812 9 2 171 3 0 1 31 7 3 0.421
813 9 2 172 2 0 3 32 7 1 0.964
814 9 2 173 3 0 1 31 7 3 0.492
815 9 2 174 3 0 2 32 7 2 0.84
816 9 2 175 3 1 0 31 7 3 0.492
817 9 2 176 3 1 2 31 7 2 0.504
818 9 2 177 0 1 2 34 7 2 0.991
819 9 2 178 1 0 0 33 7 1 0.758
820 9 2 179 3 0 2 34 7 3 0.473
821 9 2 180 1 0 3 32 7 0 0.662
822 9 2 181 0 1 2 33 7 0 0.728
823 9 2 182 1 1 3 31 7 1 1.252
824 9 2 183 0 1 1 32 7 2 0.941
825 9 2 184 2 0 3 32 7 2 0.645
826 9 2 185 3 1 1 37 7 3 0.629
827 9 2 186 1 1 3 31 7 0 0.788
828 9 2 187 1 0 0 32 7 1 0.841
829 9 2 188 0 0 2 32 7 0 0.705
830 9 2 189 2 1 2 32 7 2 0.782
831 9 2 190 1 1 0 32 7 1 1.248
832 9 2 191 3 1 2 31 7 0 0.674
833 9 3 192 3 1 1 31 7 3 0.463
834 9 3 193 0 1 3 31 7 0 1.02
835 9 3 194 2 1 0 32 7 2 0.659
836 9 3 195 2 1 0 33 7 2 0.53
837 9 3 196 1 0 2 31 7 1 0.453
838 9 3 197 2 1 1 34 7 2 0.539
839 9 3 198 2 1 3 32 7 2 0.597
840 9 3 199 2 0 2 31 7 2 0.573
841 9 3 200 1 1 3 33 7 1 0.535
842 9 3 201 1 1 2 34 7 1 0.49
843 9 3 202 1 1 3 31 7 1 0.558
844 9 3 203 1 0 0 31 7 1 0.456
845 9 3 204 2 1 0 33 7 1 0.622
846 9 3 205 0 0 0 32 7 1 0.545
847 9 3 206 2 0 1 31 7 2 0.496
848 9 3 207 2 1 1 32 7 2 1.908
849 9 3 208 2 0 3 31 7 1 0.886
850 9 3 209 1 1 3 31 7 1 0.6
851 9 3 210 1 0 1 32 7 1 0.449
852 9 3 211 0 0 2 35 7 0 0.423
853 9 3 212 0 0 0 31 7 0 0.494
854 9 3 213 1 0 1 37 7 1 0.467
855 9 3 214 2 1 1 35 7 0 0.464
856 9 3 215 3 1 1 31 7 3 0.994
857 9 3 216 0 0 0 31 7 0 0.676
858 9 3 217 0 1 0 31 7 0 0.65
859 9 3 218 0 0 3 31 7 3 0.986
860 9 3 219 0 0 3 32 7 1 0.976
861 9 3 220 1 1 0 31 7 1 0.615
862 9 3 221 0 0 3 31 7 0 0.526
863 9 3 222 1 0 1 31 7 1 0.458
864 9 3 223 1 1 1 34 7 1 0.496
865 9 3 224 2 1 3 31 7 2 0.707
866 9 3 225 1 0 3 33 7 1 0.64
867 9 3 226 0 1 3 35 7 1 0.687
868 9 3 227 0 1 2 32 7 0 0.48
869 9 3 228 1 0 3 31 7 1 0.669
870 9 3 229 1 0 3 32 7 1 0.539
871 9 3 230 1 0 0 32 7 2 0.742
872 9 3 231 1 1 3 31 7 0 0.653
873 9 3 232 0 1 3 31 7 0 0.423
874 9 3 233 0 1 2 43 7 0 0.373
875 9 3 234 0 1 0 33 7 0 0.461
876 9 3 235 1 0 2 34 7 1 0.419
877 9 3 236 0 1 1 33 7 0 0.586
878 9 3 237 0 0 1 34 7 0 0.467
879 9 3 238 0 1 3 32 7 0 1.313
880 9 3 239 2 0 1 32 7 2 0.611
881 9 3 240 1 0 3 31 7 2 0.972
882 9 3 241 0 1 3 31 7 0 1.251
883 9 3 242 0 1 1 33 7 0 0.42
884 9 3 243 2 0 0 32 7 2 0.803
885 9 3 244 2 1 1 35 7 2 0.42
886 9 3 245 0 0 0 31 7 0 0.507
887 9 3 246 1 0 3 33 7 1 0.711
888 9 3 247 1 0 2 31 7 1 0.579
889 9 3 248 3 1 3 33 7 1 0.805
890 9 3 249 1 1 0 32 7 1 0.458
891 9 3 250 2 1 2 33 7 2 0.656
892 9 3 251 0 1 0 31 7 0 0.414
893 9 3 252 0 0 3 31 7 2 0.67
894 9 3 253 3 0 1 32 7 3 0.551
895 9 3 254 2 0 2 32 7 2 0.602
896 9 3 255 3 1 0 37 7 3 0.682
897 9 4 256 2 0 0 32 7 2 1.132
898 9 4 257 1 1 2 31 7 1 0.586
899 9 4 258 0 1 2 36 7 0 0.427
900 9 4 259 3 0 2 32 7 3 0.514
901 9 4 260 1 0 1 32 7 1 0.47
902 9 4 261 1 0 0 33 7 1 0.515
903 9 4 262 2 1 0 31 7 1 0.83
904 9 4 263 1 1 0 41 7 1 0.49
905 9 4 264 2 0 2 31 7 2 0.447
906 9 4 265 2 1 1 32 7 2 0.829
907 9 4 266 2 0 3 32 7 1 0.814
908 9 4 267 3 1 0 32 7 3 0.63
909 9 4 268 3 0 2 31 7 3 0.43
910 9 4 269 0 1 2 32 7 2 0.773
911 9 4 270 3 0 2 33 7 3 0.427
912 9 4 271 3 0 0 31 7 3 0.546
913 9 4 272 3 1 0 34 7 3 0.533
914 9 4 273 3 0 1 33 7 3 0.408
915 9 4 274 3 1 2 35 7 3 2.143
916 9 4 275 1 1 2 32 7 1 0.51
917 9 4 276 1 1 0 33 7 2 0.738
918 9 4 277 3 1 1 31 7 3 0.521
919 9 4 278 2 0 0 33 7 3 0.565
920 9 4 279 0 0 0 33 7 2 0.874
921 9 4 280 1 1 3 31 7 1 0.709
922 9 4 281 1 0 3 34 7 1 0.457
923 9 4 282 1 1 3 40 7 1 0.695
924 9 4 283 1 1 1 33 7 2 0.557
925 9 4 284 2 1 3 31 7 2 0.482
926 9 4 285 1 1 2 31 7 1 0.455
927 9 4 286 3 1 0 31 7 3 0.509
928 9 4 287 2 0 2 34 7 2 0.529
929 9 4 288 3 1 3 31 7 3 0.556
930 9 4 289 1 0 2 34 7 1 0.407
931 9 4 290 3 0 0 32 7 3 0.374
932 9 4 291 0 0 3 32 7 0 0.495
933 9 4 292 2 0 3 31 7 1 0.467
934 9 4 293 3 1 3 31 7 3 0.524
935 9 4 294 3 0 2 33 7 3 0.471
936 9 4 295 3 1 2 33 7 2 0.788
937 9 4 296 0 1 2 33 7 2 0.93
938 9 4 297 1 1 3 32 7 1 0.61
939 9 4 298 1 0 1 31 7 3 0.931
940 9 4 299 3 0 0 31 7 3 0.491
941 9 4 300 3 0 1 32 7 3 0.528
942 9 4 301 1 1 0 31 7 1 0.635
943 9 4 302 1 1 1 35 7 1 0.802
944 9 4 303 1 0 1 32 7 1 0.524
945 9 4 304 0 1 1 31 7 3 1.103
946 9 4 305 2 1 1 31 7 2 0.425
947 9 4 306 3 0 2 34 7 3 0.496
948 9 4 307 1 1 2 32 7 2 0.869
949 9 4 308 0 0 2 37 7 0 0.495
950 9 4 309 2 1 3 40 7 2 1.676
951 9 4 310 0 1 3 34 7 0 0.63
952 9 4 311 1 0 0 34 7 1 0.549
953 9 4 312 3 1 1 34 7 3 0.471
954 9 4 313 1 0 0 34 7 1 0.628
955 9 4 314 2 1 2 31 7 2 0.836
956 9 4 315 3 0 0 34 7 3 0.532
957 9 4 316 2 0 1 33 7 2 0.727
958 9 4 317 3 0 3 32 7 3 0.482
959 9 4 318 3 0 1 31 7 3 0.416
960 9 4 319 0 1 3 32 7 3 0.655
961 15 0 0 0 1 0 33 7 0 1.147
962 15 0 1 1 1 1 37 7 0 0.824
963 15 0 2 3 1 3 32 7 0 1.172
964 15 0 3 0 0 0 39 7 1 1.459
965 15 0 4 1 0 3 34 7 0 0.728
966 15 0 5 3 1 2 32 7 0 0.871
967 15 0 6 0 1 3 36 7 0 0.657
968 15 0 7 0 1 2 32 7 0 1.375
969 15 0 8 2 1 1 31 7 0 0.627
970 15 0 9 1 1 1 34 7 1 0.71
971 15 0 10 2 0 2 31 7 1 0.77
972 15 0 11 1 0 2 36 7 0 0.496
973 15 0 12 2 0 1 35 7 1 0.791
974 15 0 13 1 0 0 36 7 1 0.724
975 15 0 14 3 1 3 34 7 3 0.688
976 15 0 15 1 1 0 32 7 3 0.732
977 15 0 16 1 0 2 32 7 1 0.652
978 15 0 17 3 1 0 32 7 1 1.05
979 15 0 18 3 0 0 32 7 2 0.906
980 15 0 19 2 0 1 41 7 1 0.739
981 15 0 20 2 1 2 37 7 0 0.578
982 15 0 21 1 0 2 39 7 1 0.55
983 15 0 22 3 0 2 31 7 0 0.632
984 15 0 23 3 0 0 31 7 1 0.667
985 15 0 24 3 0 0 45 7 1 0.701
986 15 0 25 0 0 1 33 7 0 0.765
987 15 0 26 3 0 0 35 7 0 0.599
988 15 0 27 3 1 2 33 7 0 0.731
989 15 0 28 2 1 3 31 7 0 1.269
990 15 0 29 0 0 2 32 7 0 0.624
991 15 0 30 3 0 2 34 7 0 0.399
992 15 0 31 2 0 2 31 7 1 0.634
993 15 0 32 0 0 2 35 7 0 0.477
994 15 0 33 3 0 0 31 7 1 1.025
995 15 0 34 3 1 2 32 7 0 0.886
996 15 0 35 0 1 1 35 7 0 0.783
997 15 0 36 3 0 2 33 7 3 0.633
998 15 0 37 0 1 2 32 7 0 0.664
999 15 0 38 1 1 3 31 7 1 0.758
1000 15 0 39 0 0 0 31 7 1 0.704
1001 15 0 40 3 1 0 31 7 1 0.672
1002 15 0 41 1 0 2 31 7 1 0.593
1003 15 0 42 1 0 3 31 7 1 0.449
1004 15 0 43 3 0 0 33 7 1 1.175
1005 15 0 44 1 1 1 39 7 1 0.774
1006 15 0 45 2 1 2 31 7 0 0.576
1007 15 0 46 2 1 3 33 7 1 1.14
1008 15 0 47 0 0 1 31 7 0 0.613
1009 15 0 48 0 0 0 31 7 0 0.773
1010 15 0 49 0 1 2 33 7 1 0.718
1011 15 0 50 1 1 2 31 7 0 0.622
1012 15 0 51 0 0 1 33 7 0 0.704
1013 15 0 52 1 0 1 32 7 1 0.621
1014 15 0 53 1 0 1 31 7 1 0.572
1015 15 0 54 1 0 3 31 7 2 0.701
1016 15 0 55 2 1 1 34 7 0 0.749
1017 15 0 56 1 1 3 31 7 0 0.716
1018 15 0 57 2 0 1 33 7 1 0.715
1019 15 0 58 0 0 3 35 7 0 0.891
1020 15 0 59 2 1 0 31 7 3 0.993
1021 15 0 60 2 0 1 33 7 1 0.919
1022 15 0 61 0 1 3 32 7 0 0.911
1023 15 0 62 2 1 0 32 7 0 0.932
1024 15 0 63 0 0 3 32 7 0 0.62
1025 15 1 64 0 1 1 31 7 0 2.478
1026 15 1 65 0 1 3 31 7 0 0.779
1027 15 1 66 1 0 3 32 7 2 0.724
1028 15 1 67 1 0 3 33 7 1 0.819
1029 15 1 68 2 0 3 31 7 2 0.524
1030 15 1 69 0 0 3 40 7 0 0.446
1031 15 1 70 1 1 1 32 7 1 0.883
1032 15 1 71 2 0 1 34 7 1 0.569
1033 15 1 72 0 1 1 31 7 0 0.829
1034 15 1 73 1 1 3 31 7 0 0.742
1035 15 1 74 3 0 0 31 7 2 0.66
1036 15 1 75 0 1 0 32 7 0 1.35
1037 15 1 76 3 0 2 32 7 3 0.811
1038 15 1 77 0 0 3 32 7 2 0.947
1039 15 1 78 0 1 0 31 7 1 0.891
1040 15 1 79 1 0 1 43 7 1 0.66
1041 15 1 80 2 0 1 32 7 0 0.69
1042 15 1 81 3 0 3 32 7 3 0.594
1043 15 1 82 1 1 0 31 7 2 0.739
1044 15 1 83 2 1 3 31 7 2 0.737
1045 15 1 84 2 1 0 31 7 0 1.468
1046 15 1 85 1 0 0 33 7 2 0.783
1047 15 1 86 1 0 3 31 7 1 0.812
1048 15 1 87 1 0 3 35 7 1 0.501
1049 15 1 88 0 0 2 31 7 3 0.681
1050 15 1 89 0 1 1 33 7 0 0.505
1051 15 1 90 2 1 1 32 7 0 0.589
1052 15 1 91 2 0 2 38 7 2 0.817
1053 15 1 92 0 0 2 31 7 2 0.697
1054 15 1 93 2 0 0 35 7 1 0.601
1055 15 1 94 0 1 2 34 7 3 0.685
1056 15 1 95 3 1 1 33 7 0 0.525
1057 15 1 96 3 0 2 31 7 3 0.724
1058 15 1 97 0 1 0 31 7 1 2.031
1059 15 1 98 0 1 3 32 7 0 0.656
1060 15 1 99 1 1 0 37 7 0 0.974
1061 15 1 100 0 1 1 32 7 2 1.172
1062 15 1 101 1 1 2 32 7 3 0.787
1063 15 1 102 2 1 0 31 7 2 0.734
1064 15 1 103 3 1 1 34 7 3 0.777
1065 15 1 104 0 0 0 37 7 0 0.611
1066 15 1 105 1 0 3 34 7 1 0.626
1067 15 1 106 2 0 0 31 7 1 0.705
1068 15 1 107 3 0 3 32 7 3 0.497
1069 15 1 108 1 0 2 35 7 1 0.773
1070 15 1 109 3 0 1 31 7 1 0.751
1071 15 1 110 1 0 1 31 7 0 0.525
1072 15 1 111 1 1 2 32 7 0 0.74
1073 15 1 112 0 1 3 33 7 3 0.578
1074 15 1 113 1 1 3 31 7 0 0.663
1075 15 1 114 2 0 0 32 7 1 0.568
1076 15 1 115 3 1 3 33 7 3 0.541
1077 15 1 116 1 1 0 31 7 3 0.703
1078 15 1 117 3 1 1 32 7 2 0.639
1079 15 1 118 2 0 3 33 7 2 0.657
1080 16 0 0 3 0 0 32 7 3 1.116
1081 15 1 119 3 0 1 32 7 3 0.719
1082 16 0 1 0 0 2 31 7 0 1.09
1083 15 1 120 1 1 3 31 7 2 0.699
1084 16 0 2 0 1 1 33 7 0 0.921
1085 15 1 121 2 1 0 31 7 2 0.683
1086 16 0 3 3 1 2 31 7 0 0.878
1087 15 1 122 1 1 1 31 7 3 0.552
1088 16 0 4 2 0 0 32 7 1 0.88
1089 15 1 123 3 1 3 31 7 3 0.621
1090 16 0 5 2 1 1 31 7 2 1.28
1091 15 1 124 0 0 1 33 7 1 0.716
1092 15 1 125 1 0 0 36 7 1 0.668
1093 16 0 6 0 0 3 40 7 0 1.081
1094 15 1 126 3 1 3 31 7 0 1.018
1095 16 0 7 2 1 1 33 7 0 1.569
1096 15 1 127 3 0 3 39 7 3 0.511
1097 16 0 8 1 0 3 33 7 1 0.754
1098 15 2 128 0 1 0 35 7 1 0.613
1099 16 0 9 1 1 0 33 7 1 1.237
1100 15 2 129 3 0 2 33 7 3 0.568
1101 16 0 10 2 1 1 31 7 2 0.855
1102 15 2 130 0 0 2 34 7 1 0.634
1103 16 0 11 0 0 1 32 7 2 0.91
1104 15 2 131 0 1 0 31 7 1 0.813
1105 16 0 12 1 1 2 35 7 0 1.216
1106 15 2 132 2 1 3 32 7 2 1.417
1107 16 0 13 0 0 1 31 7 0 1.55
1108 15 2 133 2 1 2 37 7 0 0.795
1109 16 0 14 2 0 2 34 7 1 1.188
1110 15 2 134 2 0 1 31 7 1 0.568
1111 15 2 135 2 0 2 31 7 1 0.573
1112 15 2 136 1 0 1 37 7 1 0.402
1113 15 2 137 2 1 2 39 7 2 0.713
1114 16 0 15 3 1 2 31 7 2 5.843
1115 15 2 138 1 1 0 34 7 1 0.613
1116 16 0 16 1 1 1 31 7 1 0.884
1117 15 2 139 0 0 0 31 7 0 0.629
1118 16 0 17 3 1 3 32 7 0 0.834
1119 15 2 140 0 0 3 31 7 1 0.548
1120 16 0 18 1 1 0 32 7 1 0.742
1121 15 2 141 3 0 1 34 7 1 0.522
1122 16 0 19 3 0 1 31 7 3 1.009
1123 15 2 142 0 1 3 33 7 2 0.8
1124 16 0 20 2 1 3 31 7 2 0.868
1125 15 2 143 2 0 2 33 7 1 1.245
1126 16 0 21 3 1 0 34 7 3 0.73
1127 15 2 144 3 1 2 32 7 0 0.713
1128 16 0 22 2 0 1 32 7 2 0.671
1129 15 2 145 2 0 2 31 7 1 0.569
1130 15 2 146 0 0 2 32 7 1 0.574
1131 16 0 23 1 0 3 36 7 1 1.485
1132 15 2 147 2 1 0 31 7 1 0.69
1133 16 0 24 2 1 2 33 7 2 0.766
1134 15 2 148 1 1 1 42 7 0 0.851
1135 16 0 25 2 1 0 31 7 0 1.369
1136 15 2 149 0 0 1 34 7 3 1.102
1137 16 0 26 2 0 1 32 7 2 0.857
1138 15 2 150 1 1 3 31 7 1 0.639
1139 16 0 27 1 1 2 32 7 1 0.705
1140 15 2 151 0 0 0 31 7 0 0.718
1141 16 0 28 3 1 1 32 7 3 0.725
1142 15 2 152 3 0 1 32 7 1 1.29
1143 16 0 29 0 1 2 32 7 0 0.842
1144 15 2 153 2 1 1 31 7 2 0.645
1145 16 0 30 2 0 0 32 7 2 0.746
1146 15 2 154 1 0 2 31 7 2 0.611
1147 16 0 31 2 1 1 32 7 2 0.693
1148 15 2 155 0 1 0 32 7 3 0.599
1149 16 0 32 0 0 1 31 7 1 0.715
1150 15 2 156 0 0 0 32 7 0 0.539
1151 16 0 33 1 0 0 31 7 1 0.763
1152 15 2 157 0 1 2 31 7 0 0.653
1153 16 0 34 3 1 2 31 7 3 0.838
1154 15 2 158 3 0 1 31 7 0 1.147
1155 16 0 35 1 1 1 31 7 2 0.662
1156 15 2 159 1 0 1 32 7 1 1.003
1157 16 0 36 3 1 1 36 7 3 0.664
1158 15 2 160 1 1 3 33 7 3 0.957
1159 16 0 37 1 0 3 32 7 1 0.759
1160 15 2 161 2 0 3 35 7 2 0.66
1161 16 0 38 2 0 3 37 7 1 0.538
1162 15 2 162 2 0 3 31 7 2 0.594
1163 16 0 39 0 1 3 32 7 2 0.704
1164 15 2 163 0 0 1 34 7 0 0.738
1165 16 0 40 0 0 0 31 7 2 2.168
1166 15 2 164 1 1 1 31 7 0 1.117
1167 16 0 41 2 1 2 35 7 1 0.861
1168 15 2 165 3 1 2 34 7 0 0.878
1169 16 0 42 0 1 3 31 7 0 0.752
1170 15 2 166 2 0 2 34 7 2 0.968
1171 16 0 43 3 0 2 31 7 3 1.427
1172 15 2 167 1 0 1 33 7 2 0.57
1173 16 0 44 0 1 3 32 7 3 0.774
1174 15 2 168 1 0 0 31 7 1 0.735
1175 16 0 45 0 0 0 31 7 0 1.14
1176 15 2 169 0 0 1 32 7 1 0.89
1177 16 0 46 0 1 2 31 7 0 0.721
1178 15 2 170 2 0 0 32 7 1 0.755
1179 15 2 171 1 1 1 32 7 2 0.689
1180 16 0 47 2 0 2 32 7 0 1.709
1181 15 2 172 2 1 2 33 7 0 0.722
1182 16 0 48 1 1 3 31 7 1 1.162
1183 15 2 173 3 0 2 31 7 2 0.753
1184 16 0 49 1 0 2 36 7 0 0.487
1185 15 2 174 3 1 3 32 7 1 1.311
1186 16 0 50 1 0 3 40 7 1 0.535
1187 15 2 175 0 1 3 32 7 1 0.761
1188 16 0 51 0 0 3 31 7 0 0.546
1189 15 2 176 1 0 1 31 7 1 0.735
1190 16 0 52 3 0 0 31 7 3 1.319
1191 15 2 177 3 0 1 31 7 1 0.602
1192 16 0 53 1 1 2 37 7 1 0.798
1193 15 2 178 3 1 1 36 7 2 1.021
1194 16 0 54 3 0 0 37 7 3 0.904
1195 15 2 179 2 1 3 33 7 0 0.882
1196 16 0 55 3 0 2 32 7 2 0.797
1197 15 2 180 3 1 0 31 7 1 0.731
1198 16 0 56 0 0 2 32 7 0 0.562
1199 15 2 181 2 1 0 33 7 2 0.523
1200 16 0 57 2 1 0 34 7 2 1.276
1201 15 2 182 2 0 0 38 7 2 0.525
1202 16 0 58 3 1 2 32 7 1 1.029
1203 15 2 183 1 1 0 33 7 3 0.816
1204 16 0 59 2 1 2 32 7 1 1.01
1205 15 2 184 3 0 2 33 7 3 0.652
1206 16 0 60 2 0 0 31 7 1 0.568
1207 15 2 185 0 0 0 33 7 0 0.666
1208 16 0 61 3 0 3 34 7 3 0.797
1209 15 2 186 2 1 0 35 7 0 0.712
1210 16 0 62 1 1 0 33 7 1 1.186
1211 15 2 187 3 1 0 32 7 3 1.016
1212 15 2 188 0 0 3 33 7 1 0.857
1213 16 0 63 3 1 2 31 7 3 0.949
1214 15 2 189 0 0 3 32 7 1 0.804
1215 15 2 190 2 0 0 31 7 0 0.72
1216 15 2 191 3 0 3 33 7 1 0.751
1217 15 3 192 3 0 2 31 7 0 1.972
1218 15 3 193 3 0 3 32 7 1 0.742
1219 15 3 194 3 1 1 32 7 2 0.853
1220 16 1 64 0 0 2 31 7 0 1.12
1221 15 3 195 0 1 2 31 7 0 0.559
1222 16 1 65 0 0 3 32 7 0 0.478
1223 15 3 196 1 0 2 35 7 1 0.673
1224 16 1 66 2 1 3 32 7 1 0.675
1225 15 3 197 0 1 3 33 7 2 0.942
1226 16 1 67 3 1 0 35 7 3 0.908
1227 15 3 198 0 0 1 34 7 1 0.95
1228 16 1 68 2 0 1 36 7 2 0.994
1229 15 3 199 3 1 1 31 7 0 0.503
1230 16 1 69 0 0 2 32 7 0 0.861
1231 15 3 200 3 0 0 31 7 1 0.734
1232 16 1 70 2 1 2 31 7 2 0.724
1233 15 3 201 0 1 0 31 7 2 0.829
1234 16 1 71 0 0 1 36 7 2 1.184
1235 15 3 202 1 1 3 33 7 2 0.664
1236 16 1 72 0 0 1 32 7 0 0.567
1237 15 3 203 1 1 2 39 7 2 0.538
1238 16 1 73 1 0 3 32 7 1 0.474
1239 15 3 204 2 1 3 36 7 2 0.607
1240 15 3 205 2 1 1 34 7 0 0.591
1241 16 1 74 3 1 3 31 7 2 0.935
1242 15 3 206 1 1 1 31 7 1 0.771
1243 16 1 75 3 0 1 34 7 3 0.791
1244 15 3 207 2 0 0 31 7 1 0.525
1245 16 1 76 1 1 2 32 7 1 0.777
1246 15 3 208 3 0 1 39 7 0 0.691
1247 16 1 77 0 0 2 34 7 0 0.603
1248 15 3 209 0 1 3 33 7 3 0.532
1249 16 1 78 1 1 3 33 7 2 0.723
1250 15 3 210 2 1 3 32 7 2 0.746
1251 16 1 79 1 1 2 32 7 1 0.787
1252 15 3 211 1 0 0 32 7 1 0.741
1253 16 1 80 3 1 1 31 7 3 0.837
1254 15 3 212 1 0 2 34 7 1 0.784
1255 16 1 81 2 1 2 31 7 2 0.703
1256 15 3 213 1 1 0 32 7 2 0.761
1257 16 1 82 1 0 0 32 7 1 0.692
1258 15 3 214 2 0 1 31 7 1 0.695
1259 16 1 83 3 0 2 31 7 3 0.769
1260 15 3 215 0 1 1 42 7 0 0.536
1261 16 1 84 0 1 0 32 7 0 0.723
1262 15 3 216 2 1 2 32 7 2 0.986
1263 16 1 85 3 1 0 34 7 3 1.2
1264 15 3 217 0 0 2 36 7 0 0.524
1265 16 1 86 2 0 1 34 7 2 0.699
1266 15 3 218 2 1 1 33 7 1 0.703
1267 16 1 87 0 0 3 31 7 0 0.76
1268 15 3 219 3 0 3 31 7 3 0.767
1269 16 1 88 2 1 3 36 7 2 0.819
1270 15 3 220 1 1 0 31 7 2 0.985
1271 16 1 89 3 1 3 31 7 3 0.732
1272 15 3 221 1 1 2 32 7 2 0.735
1273 16 1 90 1 0 0 31 7 1 0.703
1274 15 3 222 3 1 1 32 7 1 0.83
1275 16 1 91 2 1 1 31 7 1 0.787
1276 15 3 223 1 0 0 31 7 2 0.809
1277 15 3 224 2 0 1 36 7 1 0.486
1278 16 1 92 1 1 0 32 7 1 0.752
1279 15 3 225 0 0 2 31 7 0 0.43
1280 16 1 93 0 1 2 37 7 1 0.763
1281 15 3 226 1 1 2 35 7 1 0.708
1282 16 1 94 2 0 3 32 7 2 0.761
1283 15 3 227 0 0 3 38 7 0 0.608
1284 16 1 95 0 1 2 33 7 1 0.756
1285 15 3 228 1 0 2 31 7 1 0.527
1286 16 1 96 1 0 0 39 7 1 1.015
1287 15 3 229 3 1 3 34 7 3 0.689
1288 16 1 97 1 0 1 33 7 1 0.521
1289 15 3 230 3 1 1 33 7 2 0.734
1290 16 1 98 1 1 0 31 7 2 0.676
1291 15 3 231 3 1 0 34 7 1 0.781
1292 16 1 99 1 0 2 31 7 2 0.942
1293 16 1 100 1 1 0 31 7 1 0.71
1294 15 3 232 1 1 2 32 7 2 1.499
1295 16 1 101 3 0 0 33 7 3 0.691
1296 15 3 233 2 0 3 31 7 2 0.815
1297 15 3 234 2 1 2 32 7 1 0.647
1298 16 1 102 1 1 1 32 7 1 1.048
1299 15 3 235 2 0 3 35 7 0 0.473
1300 16 1 103 0 1 1 33 7 1 0.801
1301 15 3 236 0 0 3 31 7 0 0.529
1302 16 1 104 2 0 2 31 7 1 0.526
1303 15 3 237 2 1 0 33 7 1 0.948
1304 16 1 105 2 1 0 36 7 2 0.893
1305 15 3 238 0 0 3 34 7 0 0.571
1306 16 1 106 2 1 0 31 7 2 0.387
1307 16 1 107 1 1 1 44 7 1 0.731
1308 15 3 239 3 1 0 36 7 1 1.084
1309 16 1 108 0 0 3 31 7 3 0.903
1310 15 3 240 2 0 2 31 7 2 0.686
1311 15 3 241 0 1 1 32 7 3 0.571
1312 16 1 109 2 0 0 35 7 2 0.736
1313 15 3 242 3 1 0 34 7 3 0.559
1314 16 1 110 0 1 2 33 7 1 1.1
1315 15 3 243 3 1 0 36 7 1 0.641
1316 16 1 111 1 1 1 43 7 1 0.502
1317 15 3 244 0 1 2 31 7 1 1.251
1318 16 1 112 3 1 0 37 7 3 0.698
1319 15 3 245 1 0 3 33 7 0 0.415
1320 16 1 113 2 1 0 32 7 2 1.095
1321 15 3 246 2 0 2 41 7 1 0.778
1322 16 1 114 0 0 1 34 7 3 0.974
1323 15 3 247 1 0 0 32 7 1 0.711
1324 16 1 115 2 0 0 33 7 2 0.781
1325 15 3 248 0 1 2 39 7 2 0.451
1326 16 1 116 3 1 1 37 7 3 1.047
1327 15 3 249 1 0 1 35 7 3 0.525
1328 15 3 250 0 0 0 32 7 0 0.291
1329 16 1 117 1 1 3 36 7 1 0.744
1330 15 3 251 1 0 0 31 7 1 0.19
1331 16 1 118 2 0 1 34 7 2 0.692
1332 15 3 252 3 0 1 31 7 0 0.061
1333 16 1 119 0 1 0 33 7 0 0.593
1334 15 3 253 1 0 0 32 7 1 0.612
1335 16 1 120 1 1 3 31 7 1 0.81
1336 15 3 254 0 0 1 31 7 0 0.179
1337 15 3 255 0 1 0 32 7 0 0.226
1338 16 1 121 3 0 1 35 7 3 0.892
1339 16 1 122 2 1 1 31 7 2 0.826
1340 15 4 256 2 1 1 31 7 0 0.164
1341 16 1 123 3 0 2 34 7 3 0.65
1342 15 4 257 2 1 1 32 7 2 0.487
1343 15 4 258 1 1 1 32 7 1 0.315
1344 16 1 124 3 1 0 32 7 3 0.601
1345 15 4 259 3 1 1 32 7 0 0.71
1346 16 1 125 1 0 1 35 7 1 0.833
1347 15 4 260 2 1 2 31 7 1 0.845
1348 16 1 126 2 1 0 31 7 2 0.737
1349 15 4 261 2 1 1 31 7 2 0.552
1350 16 1 127 0 1 1 32 7 0 0.757
1351 15 4 262 3 0 3 34 7 3 0.889
1352 16 2 128 0 1 3 32 7 0 0.621
1353 15 4 263 3 1 2 31 7 1 0.687
1354 16 2 129 0 0 3 33 7 0 0.469
1355 15 4 264 2 0 1 34 7 2 0.463
1356 16 2 130 3 0 1 33 7 3 0.69
1357 15 4 265 2 1 3 32 7 1 0.548
1358 16 2 131 3 1 3 37 7 3 1.04
1359 15 4 266 2 0 3 32 7 1 0.986
1360 16 2 132 0 0 0 33 7 0 0.8
1361 15 4 267 2 1 2 31 7 1 0.672
1362 16 2 133 0 0 3 31 7 0 0.626
1363 15 4 268 1 1 3 33 7 1 0.545
1364 16 2 134 1 1 1 31 7 1 0.721
1365 15 4 269 2 1 0 35 7 2 0.515
1366 16 2 135 2 1 1 45 7 1 0.83
1367 15 4 270 1 0 1 34 7 1 0.55
1368 15 4 271 1 1 0 34 7 2 0.518
1369 16 2 136 0 1 1 32 7 0 0.663
1370 16 2 137 0 0 1 32 7 0 0.621
1371 15 4 272 2 0 0 31 7 1 1.229
1372 15 4 273 2 0 2 33 7 2 0.266
1373 16 2 138 1 0 1 35 7 1 0.901
1374 15 4 274 1 0 3 32 7 1 0.615
1375 16 2 139 3 1 0 35 7 3 1.171
1376 15 4 275 2 1 2 32 7 3 0.87
1377 16 2 140 1 1 3 34 7 2 0.871
1378 15 4 276 0 0 0 34 7 1 0.592
1379 16 2 141 1 0 0 31 7 1 0.642
1380 15 4 277 0 1 2 32 7 3 1.7
1381 16 2 142 1 1 0 33 7 1 0.72
1382 15 4 278 0 1 1 32 7 0 0.352
1383 16 2 143 0 1 2 36 7 0 0.772
1384 15 4 279 1 1 3 34 7 1 0.473
1385 16 2 144 0 1 0 32 7 0 0.479
1386 16 2 145 0 0 1 32 7 0 0.436
1387 15 4 280 1 1 0 31 7 1 0.941
1388 15 4 281 3 1 1 32 7 2 0.577
1389 16 2 146 1 0 0 33 7 1 0.626
1390 15 4 282 2 0 0 33 7 2 0.694
1391 16 2 147 2 1 2 31 7 0 1.074
1392 15 4 283 0 1 0 32 7 3 0.819
1393 16 2 148 0 0 3 31 7 0 0.381
1394 16 2 149 0 1 0 32 7 0 0.43
1395 15 4 284 0 0 1 31 7 2 0.766
1396 15 4 285 2 1 3 32 7 1 0.412
1397 16 2 150 0 0 0 35 7 1 0.917
1398 15 4 286 3 1 2 32 7 3 0.23
1399 16 2 151 3 0 3 32 7 3 0.933
1400 15 4 287 0 1 1 32 7 1 0.035
1401 15 4 288 3 0 1 33 7 2 0.012
1402 16 2 152 1 0 0 31 7 1 0.762
1403 15 4 289 2 0 0 31 7 1 0.052
1404 16 2 153 3 0 0 33 7 3 0.813
1405 15 4 290 0 1 2 33 7 1 0.796
1406 16 2 154 0 1 3 31 7 0 0.998
1407 15 4 291 3 1 0 32 7 2 0.393
1408 16 2 155 0 0 1 34 7 0 0.481
1409 15 4 292 0 0 2 31 7 0 0.484
1410 16 2 156 3 0 3 31 7 3 0.902
1411 15 4 293 3 0 3 33 7 2 0.808
1412 16 2 157 3 0 3 32 7 3 0.324
1413 15 4 294 3 0 2 31 7 1 0.405
1414 16 2 158 2 1 2 34 7 2 0.83
1415 15 4 295 1 0 0 38 7 1 0.911
1416 16 2 159 3 0 2 34 7 3 0.735
1417 15 4 296 2 1 3 31 7 2 0.596
1418 16 2 160 3 1 0 31 7 3 0.666
1419 15 4 297 3 1 2 31 7 3 0.676
1420 16 2 161 2 0 2 31 7 2 0.809
1421 15 4 298 0 1 3 31 7 0 0.434
1422 16 2 162 1 1 3 31 7 3 0.65
1423 15 4 299 3 1 0 32 7 1 0.728
1424 16 2 163 3 0 0 33 7 3 0.637
1425 15 4 300 3 0 0 37 7 2 0.839
1426 16 2 164 3 0 3 34 7 3 0.54
1427 15 4 301 3 1 3 38 7 1 0.754
1428 16 2 165 3 0 0 35 7 3 0.511
1429 15 4 302 2 0 3 31 7 3 1.312
1430 16 2 166 3 0 2 34 7 3 0.491
1431 15 4 303 3 0 3 44 7 3 0.619
1432 16 2 167 2 0 3 31 7 2 0.815
1433 15 4 304 1 0 2 32 7 1 0.666
1434 16 2 168 2 1 2 32 7 2 0.528
1435 15 4 305 2 0 3 36 7 3 0.888
1436 16 2 169 3 1 1 32 7 2 0.516
1437 15 4 306 3 0 0 33 7 1 0.929
1438 16 2 170 1 0 2 34 7 0 1.155
1439 15 4 307 3 0 1 31 7 2 0.665
1440 16 2 171 3 0 1 33 7 3 1.116
1441 15 4 308 1 1 2 35 7 2 0.683
1442 16 2 172 2 1 0 33 7 2 0.778
1443 15 4 309 1 1 2 32 7 2 0.572
1444 16 2 173 0 0 2 31 7 2 0.42
1445 15 4 310 3 1 3 31 7 3 0.704
1446 16 2 174 0 0 0 31 7 0 1.239
1447 15 4 311 1 1 2 32 7 2 0.604
1448 15 4 312 3 1 3 31 7 1 0.416
1449 16 2 175 1 1 2 31 7 1 0.736
1450 15 4 313 3 0 3 34 7 2 0.714
1451 16 2 176 2 0 3 40 7 2 0.812
1452 15 4 314 0 1 1 31 7 1 0.474
1453 16 2 177 2 0 3 33 7 2 0.501
1454 15 4 315 3 1 2 34 7 3 0.482
1455 16 2 178 2 0 0 31 7 2 0.57
1456 15 4 316 2 1 1 35 7 1 0.839
1457 16 2 179 2 1 3 33 7 2 0.515
1458 15 4 317 3 1 2 36 7 0 0.274
1459 16 2 180 3 0 1 33 7 3 0.855
1460 15 4 318 0 0 2 31 7 1 0.497
1461 16 2 181 2 1 3 33 7 3 0.935
1462 15 4 319 2 0 3 31 7 2 0.536
1463 16 2 182 3 1 3 31 7 3 1.343
1464 16 2 183 3 1 2 32 7 0 2.437
1465 16 2 184 0 1 1 31 7 0 0.879
1466 16 2 185 2 0 2 31 7 0 0.534
1467 16 2 186 1 1 1 33 7 1 0.749
1468 16 2 187 0 0 1 31 7 0 0.801
1469 16 2 188 3 1 3 32 7 1 3.002
1470 16 2 189 1 1 2 33 7 1 0.568
1471 16 2 190 1 1 0 32 7 1 0.594
1472 16 2 191 3 0 0 37 7 3 0.907
1473 16 3 192 1 0 3 31 7 1 1.11
1474 16 3 193 2 0 1 32 7 2 0.764
1475 16 3 194 3 0 1 34 7 3 0.917
1476 16 3 195 3 0 2 31 7 3 0.418
1477 16 3 196 0 1 1 31 7 0 1.033
1478 16 3 197 1 0 1 37 7 1 0.65
1479 16 3 198 2 0 2 32 7 2 0.785
1480 16 3 199 1 0 1 33 7 1 0.683
1481 16 3 200 1 0 1 31 7 1 0.489
1482 16 3 201 3 0 3 35 7 3 1.238
1483 16 3 202 1 0 0 32 7 1 0.672
1484 16 3 203 0 1 0 31 7 2 1.166
1485 16 3 204 2 0 3 31 7 2 1.086
1486 16 3 205 0 1 2 31 7 3 0.853
1487 16 3 206 3 1 1 31 7 3 0.688
1488 16 3 207 2 1 0 32 7 2 0.781
1489 16 3 208 1 1 3 33 7 2 0.704
1490 16 3 209 2 0 0 35 7 2 0.688
1491 16 3 210 1 1 0 34 7 1 0.822
1492 16 3 211 0 0 0 37 7 0 0.686
1493 16 3 212 2 0 1 31 7 1 0.612
1494 16 3 213 3 0 0 32 7 3 0.816
1495 16 3 214 2 1 3 36 7 2 0.905
1496 16 3 215 2 0 2 31 7 3 0.775
1497 16 3 216 3 1 3 40 7 3 1.237
1498 16 3 217 1 1 1 31 7 1 0.894
1499 16 3 218 3 0 2 38 7 3 0.757
1500 16 3 219 0 1 3 31 7 0 0.823
1501 16 3 220 0 1 0 34 7 0 0.84
1502 16 3 221 2 0 0 32 7 2 0.696
1503 16 3 222 3 1 3 32 7 3 0.774
1504 16 3 223 2 0 3 33 7 2 0.752
1505 16 3 224 2 0 2 33 7 2 0.723
1506 16 3 225 1 0 2 31 7 1 0.735
1507 16 3 226 2 0 3 34 7 2 0.627
1508 16 3 227 1 1 1 37 7 1 0.691
1509 16 3 228 1 0 1 33 7 0 0.648
1510 16 3 229 3 1 3 31 7 3 0.687
1511 16 3 230 2 0 2 31 7 2 0.66
1512 16 3 231 3 0 2 31 7 3 0.619
1513 16 3 232 2 1 1 31 7 1 0.851
1514 16 3 233 3 1 1 33 7 3 0.869
1515 16 3 234 0 0 3 36 7 1 0.819
1516 16 3 235 0 1 1 31 7 1 0.872
1517 16 3 236 1 0 3 35 7 1 0.77
1518 16 3 237 1 0 3 31 7 1 1.356
1519 16 3 238 1 1 2 35 7 1 0.69
1520 16 3 239 1 1 3 40 7 1 0.655
1521 16 3 240 3 0 3 33 7 3 0.702
1522 16 3 241 3 1 2 33 7 3 0.643
1523 16 3 242 0 0 3 35 7 0 0.738
1524 16 3 243 1 0 0 35 7 1 0.622
1525 16 3 244 0 1 1 31 7 1 0.733
1526 16 3 245 3 1 2 32 7 3 0.797
1527 16 3 246 3 1 1 35 7 3 0.367
1528 16 3 247 0 1 0 34 7 0 0.704
1529 16 3 248 1 1 3 37 7 2 0.797
1530 16 3 249 3 1 2 31 7 3 0.626
1531 16 3 250 1 1 2 33 7 1 0.714
1532 16 3 251 0 0 0 31 7 0 0.735
1533 16 3 252 3 0 1 35 7 3 1.355
1534 16 3 253 2 1 2 32 7 2 0.704
1535 16 3 254 3 1 1 32 7 3 0.573
1536 16 3 255 2 0 3 32 7 0 0.903
1537 16 4 256 2 1 1 31 7 2 0.755
1538 16 4 257 1 0 1 31 7 1 0.726
1539 16 4 258 3 1 3 35 7 2 0.986
1540 16 4 259 1 1 0 31 7 1 0.656
1541 16 4 260 2 0 0 32 7 2 0.623
1542 16 4 261 2 1 1 32 7 2 0.391
1543 16 4 262 1 1 2 31 7 1 0.655
1544 16 4 263 3 0 2 31 7 1 0.589
1545 16 4 264 0 0 0 31 7 2 0.698
1546 16 4 265 0 1 2 37 7 0 0.755
1547 16 4 266 2 1 3 34 7 2 0.87
1548 16 4 267 2 0 3 35 7 1 0.653
1549 16 4 268 0 0 0 31 7 0 0.615
1550 16 4 269 2 0 1 31 7 2 0.663
1551 16 4 270 1 0 0 31 7 1 0.795
1552 16 4 271 2 1 2 34 7 2 0.669
1553 16 4 272 2 0 1 32 7 2 1.163
1554 16 4 273 0 1 3 36 7 2 0.704
1555 16 4 274 1 0 1 33 7 0 1.345
1556 16 4 275 1 0 2 31 7 1 0.65
1557 16 4 276 1 1 3 36 7 2 1.825
1558 16 4 277 2 0 1 32 7 2 0.881
1559 16 4 278 2 1 3 31 7 2 0.832
1560 16 4 279 0 0 2 31 7 0 0.921
1561 16 4 280 2 1 3 41 7 2 0.893
1562 16 4 281 0 1 2 32 7 0 0.931
1563 16 4 282 3 0 3 32 7 3 0.848
1564 16 4 283 1 0 2 34 7 1 1.136
1565 16 4 284 1 0 3 35 7 2 0.95
1566 16 4 285 3 1 0 31 7 3 0.765
1567 16 4 286 0 1 3 34 7 1 0.92
1568 16 4 287 0 1 2 31 7 0 0.657
1569 16 4 288 3 0 3 31 7 3 0.839
1570 16 4 289 0 1 1 31 7 0 0.711
1571 16 4 290 0 1 3 31 7 0 0.628
1572 16 4 291 1 1 1 31 7 1 0.684
1573 16 4 292 2 1 0 32 7 2 0.69
1574 16 4 293 3 0 0 31 7 3 0.687
1575 16 4 294 0 1 1 33 7 0 0.757
1576 16 4 295 3 0 1 33 7 3 0.904
1577 16 4 296 1 0 3 33 7 1 0.989
1578 16 4 297 3 0 3 33 7 3 0.784
1579 16 4 298 2 1 3 32 7 2 0.794
1580 16 4 299 1 0 1 32 7 1 0.74
1581 16 4 300 0 1 0 33 7 0 0.615
1582 16 4 301 0 1 0 31 7 0 0.415
1583 16 4 302 3 1 1 33 7 3 0.783
1584 16 4 303 3 1 2 36 7 3 0.632
1585 16 4 304 0 0 2 35 7 0 0.704
1586 16 4 305 1 0 2 31 7 0 0.621
1587 16 4 306 0 0 2 35 7 1 0.504
1588 16 4 307 0 0 0 31 7 0 0.552
1589 16 4 308 0 1 3 33 7 0 0.474
1590 16 4 309 3 1 0 33 7 3 0.903
1591 16 4 310 1 0 2 33 7 1 0.861
1592 16 4 311 3 1 0 32 7 3 0.628
1593 16 4 312 2 0 2 33 7 3 0.916
1594 16 4 313 2 0 0 35 7 1 0.749
1595 16 4 314 1 0 2 31 7 1 0.652
1596 16 4 315 2 1 0 32 7 2 1.106
1597 16 4 316 0 1 0 35 7 0 0.807
1598 16 4 317 0 0 2 32 7 3 0.992
1599 16 4 318 1 0 2 32 7 1 0.775
1600 16 4 319 3 0 1 36 7 3 0.865
1601 18 0 0 3 0 1 32 7 3 1.696
1602 18 0 1 2 0 0 36 7 1 2.069
1603 18 0 2 0 0 3 31 7 0 0.633
1604 18 0 3 0 1 2 33 7 0 0.716
1605 18 0 4 3 1 0 31 7 1 0.877
1606 18 0 5 2 1 1 37 7 2 1.635
1607 18 0 6 0 0 2 33 7 0 0.555
1608 18 0 7 0 1 3 35 7 0 0.825
1609 18 0 8 3 1 3 33 7 1 2.109
1610 18 0 9 2 0 3 31 7 1 1.151
1611 18 0 10 2 1 0 38 7 2 3.612
1612 18 0 11 1 1 3 34 7 0 0.732
1613 18 0 12 3 1 0 34 7 1 4.895
1614 18 0 13 0 0 3 31 7 0 0.662
1615 18 0 14 1 1 1 33 7 1 3.544
1616 18 0 15 3 0 0 38 7 1 5.139
1617 18 0 16 0 1 2 42 7 0 2.593
1618 18 0 17 1 1 1 31 7 2 6.478
1619 18 0 18 1 0 2 32 7 0 0.947
1620 18 0 19 1 1 2 31 7 1 0.671
1621 18 0 20 3 1 1 34 7 2 1.169
1622 18 0 21 0 0 0 33 7 0 0.612
1623 18 0 22 1 1 3 31 7 1 0.648
1624 18 0 23 3 0 2 33 7 3 1.555
1625 18 0 24 2 1 2 33 7 1 1.062
1626 18 0 25 1 0 3 33 7 1 0.421
1627 18 0 26 0 0 0 40 7 0 0.832
1628 18 0 27 0 1 3 31 7 0 0.557
1629 18 0 28 0 1 2 31 7 3 1.539
1630 18 0 29 1 1 2 31 7 1 0.617
1631 18 0 30 3 0 3 32 7 1 0.597
1632 18 0 31 2 1 2 34 7 1 0.598
1633 18 0 32 2 0 3 37 7 1 1.438
1634 18 0 33 2 0 0 33 7 2 0.928
1635 18 0 34 3 0 2 34 7 3 1.001
1636 18 0 35 3 0 3 31 7 3 1.319
1637 18 0 36 3 0 1 33 7 3 0.674
1638 18 0 37 2 0 3 31 7 2 0.644
1639 18 0 38 1 0 1 37 7 2 1.022
1640 18 0 39 2 1 2 34 7 3 0.743
1641 18 0 40 2 1 2 31 7 1 0.634
1642 18 0 41 1 1 1 33 7 3 0.977
1643 18 0 42 0 1 3 32 7 2 2.268
1644 18 0 43 3 0 1 32 7 3 0.912
1645 18 0 44 0 0 0 33 7 1 1.186
1646 18 0 45 2 1 0 32 7 1 0.725
1647 18 0 46 1 0 3 33 7 2 0.568
1648 18 0 47 0 0 1 32 7 1 0.681
1649 18 0 48 2 0 3 35 7 2 2.727
1650 18 0 49 1 1 0 34 7 1 0.639
1651 18 0 50 2 1 1 36 7 2 0.826
1652 18 0 51 2 0 1 31 7 1 0.662
1653 18 0 52 2 1 1 31 7 3 1.06
1654 18 0 53 2 0 2 33 7 1 0.588
1655 18 0 54 3 0 2 32 7 3 0.788
1656 18 0 55 3 1 2 31 7 2 4.866
1657 18 0 56 1 1 2 31 7 1 0.521
1658 18 0 57 0 1 1 32 7 1 0.608
1659 18 0 58 3 1 1 32 7 3 0.944
1660 18 0 59 0 0 0 32 7 1 13.768
1661 18 0 60 1 0 2 32 7 1 0.609
1662 18 0 61 1 1 1 34 7 1 0.645
1663 18 0 62 0 0 0 38 7 0 0.48
1664 18 0 63 1 0 3 32 7 1 0.497
1665 18 1 64 2 1 3 31 7 1 1.409
1666 18 1 65 0 1 0 31 7 0 0.82
1667 18 1 66 0 1 2 32 7 3 0.984
1668 18 1 67 2 0 2 35 7 1 0.53
1669 18 1 68 3 0 0 32 7 3 0.797
1670 18 1 69 3 1 3 31 7 3 7.922
1671 18 1 70 3 0 2 36 7 3 0.584
1672 18 1 71 2 0 0 31 7 2 1.037
1673 18 1 72 3 1 2 36 7 3 1.066
1674 18 1 73 2 1 0 31 7 1 1.062
1675 18 1 74 1 1 2 32 7 2 2.501
1676 18 1 75 2 0 2 32 7 1 0.585
1677 18 1 76 3 0 1 32 7 3 0.586
1678 18 1 77 1 0 0 31 7 1 0.598
1679 18 1 78 1 1 0 31 7 1 0.787
1680 18 1 79 0 0 2 31 7 1 0.649
1681 18 1 80 1 0 2 34 7 1 0.839
1682 18 1 81 1 0 2 31 7 1 0.779
1683 18 1 82 1 1 0 31 7 3 0.746
1684 18 1 83 0 0 1 31 7 1 0.533
1685 18 1 84 2 0 3 35 7 2 0.703
1686 18 1 85 0 0 2 31 7 3 0.64
1687 18 1 86 3 1 1 31 7 3 0.775
1688 18 1 87 2 0 1 35 7 1 0.421
1689 18 1 88 0 1 1 31 7 3 1.315
1690 18 1 89 2 1 1 31 7 1 0.953
1691 18 1 90 1 0 1 31 7 1 0.701
1692 18 1 91 0 1 0 31 7 2 1.605
1693 18 1 92 3 1 1 32 7 3 0.481
1694 18 1 93 0 1 2 33 7 3 0.538
1695 18 1 94 3 1 3 32 7 3 1.173
1696 18 1 95 3 0 1 31 7 3 0.469
1697 18 1 96 0 0 3 31 7 0 0.685
1698 18 1 97 2 1 0 34 7 1 1.063
1699 18 1 98 3 0 1 34 7 3 0.638
1700 18 1 99 0 1 1 36 7 0 0.889
1701 18 1 100 1 0 0 31 7 1 1.219
1702 18 1 101 0 0 2 32 7 0 0.649
1703 18 1 102 0 0 0 34 7 1 0.66
1704 18 1 103 2 1 1 35 7 3 0.97
1705 18 1 104 2 0 1 32 7 3 0.541
1706 18 1 105 3 1 2 32 7 3 0.711
1707 18 1 106 3 0 1 31 7 3 1.624
1708 18 1 107 0 0 3 31 7 0 0.616
1709 18 1 108 2 1 2 35 7 1 0.788
1710 18 1 109 2 0 2 31 7 2 0.605
1711 18 1 110 3 1 0 31 7 3 0.961
1712 18 1 111 2 0 1 33 7 1 0.553
1713 18 1 112 1 1 0 34 7 3 0.883
1714 18 1 113 1 0 0 34 7 1 0.457
1715 18 1 114 3 1 3 31 7 3 0.571
1716 18 1 115 0 1 0 32 7 3 1.088
1717 18 1 116 3 0 2 32 7 1 0.559
1718 18 1 117 3 1 2 35 7 3 0.681
1719 18 1 118 1 1 2 32 7 3 0.522
1720 18 1 119 2 0 0 32 7 2 0.789
1721 18 1 120 2 1 0 31 7 2 2.659
1722 18 1 121 3 1 0 32 7 3 2.029
1723 18 1 122 3 0 3 33 7 3 0.878
1724 18 1 123 0 1 3 33 7 0 1.441
1725 18 1 124 3 0 3 32 7 0 0.816
1726 18 1 125 1 1 0 42 7 1 0.608
1727 18 1 126 2 1 3 31 7 2 2.739
1728 18 1 127 3 0 0 34 7 3 0.964
1729 18 2 128 3 1 1 36 7 3 1.323
1730 18 2 129 0 1 1 31 7 0 0.838
1731 18 2 130 1 0 3 39 7 1 0.889
1732 18 2 131 2 0 2 36 7 2 0.908
1733 18 2 132 1 0 0 33 7 1 0.845
1734 18 2 133 0 0 1 33 7 0 1.017
1735 18 2 134 1 0 1 32 7 1 0.814
1736 18 2 135 0 0 1 35 7 0 0.859
1737 18 2 136 2 1 3 31 7 1 0.943
1738 18 2 137 3 0 0 33 7 3 0.787
1739 18 2 138 0 0 3 31 7 1 0.88
1740 18 2 139 0 1 0 35 7 3 0.919
1741 18 2 140 3 0 2 35 7 3 0.795
1742 18 2 141 1 1 2 31 7 2 0.873
1743 18 2 142 1 1 3 34 7 1 0.887
1744 18 2 143 3 0 0 31 7 3 1.193
1745 18 2 144 2 1 2 31 7 3 0.792
1746 18 2 145 3 0 0 31 7 3 1.21
1747 18 2 146 1 1 3 31 7 1 0.849
1748 18 2 147 0 0 2 33 7 0 0.86
1749 18 2 148 3 1 0 34 7 3 0.952
1750 18 2 149 2 1 2 35 7 1 0.959
1751 18 2 150 2 1 3 32 7 1 0.899
1752 18 2 151 0 0 0 37 7 1 0.752
1753 18 2 152 2 1 2 36 7 3 1.019
1754 18 2 153 3 0 0 31 7 3 0.996
1755 18 2 154 3 1 3 34 7 3 0.986
1756 18 2 155 0 1 2 31 7 3 0.929
1757 18 2 156 2 1 0 32 7 3 0.956
1758 18 2 157 1 0 0 41 7 1 0.911
1759 18 2 158 2 1 3 31 7 1 2.361
1760 18 2 159 1 1 0 33 7 1 0.898
1761 18 2 160 0 1 1 31 7 0 0.844
1762 18 2 161 1 0 3 31 7 1 0.808
1763 18 2 162 3 1 1 31 7 3 0.917
1764 18 2 163 1 0 3 34 7 3 0.902
1765 18 2 164 2 0 1 31 7 1 0.899
1766 18 2 165 1 1 3 35 7 2 1.053
1767 18 2 166 3 1 3 33 7 1 1.196
1768 18 2 167 1 0 3 31 7 1 0.847
1769 18 2 168 2 0 1 31 7 2 0.899
1770 18 2 169 2 1 0 34 7 1 0.917
1771 18 2 170 3 0 0 32 7 3 0.93
1772 18 2 171 2 1 2 32 7 3 0.883
1773 18 2 172 0 1 3 32 7 0 0.881
1774 18 2 173 0 1 0 31 7 1 0.908
1775 18 2 174 0 1 0 31 7 0 0.809
1776 18 2 175 2 1 1 31 7 2 0.998
1777 18 2 176 3 0 3 31 7 3 1.044
1778 18 2 177 0 0 2 32 7 0 1.345
1779 18 2 178 1 0 1 32 7 1 0.825
1780 18 2 179 2 0 1 34 7 2 0.854
1781 18 2 180 3 0 3 34 7 3 0.913
1782 18 2 181 1 0 0 34 7 1 0.794
1783 18 2 182 2 0 0 31 7 2 0.864
1784 18 2 183 1 1 3 32 7 1 1.075
1785 18 2 184 3 0 2 32 7 3 0.887
1786 18 2 185 3 1 2 36 7 3 0.945
1787 18 2 186 0 1 3 32 7 1 0.937
1788 18 2 187 3 1 3 31 7 3 0.885
1789 18 2 188 1 0 1 31 7 1 0.847
1790 18 2 189 3 1 1 39 7 3 0.939
1791 18 2 190 0 0 0 32 7 1 0.916
1792 18 2 191 0 1 1 31 7 2 0.913
1793 18 3 192 3 0 3 31 7 3 0.913
1794 18 3 193 0 1 0 31 7 1 0.778
1795 18 3 194 0 0 2 31 7 0 0.628
1796 18 3 195 2 0 3 31 7 1 0.424
1797 18 3 196 3 1 0 39 7 3 0.886
1798 18 3 197 2 1 0 32 7 3 0.624
1799 18 3 198 3 1 0 32 7 3 0.519
1800 18 3 199 2 1 3 33 7 1 0.878
1801 18 3 200 3 1 2 32 7 3 0.461
1802 18 3 201 0 1 1 34 7 0 0.526
1803 18 3 202 0 0 3 32 7 0 0.621
1804 18 3 203 3 1 1 34 7 3 0.537
1805 18 3 204 1 0 0 35 7 1 0.592
1806 18 3 205 2 0 2 33 7 1 0.588
1807 18 3 206 1 1 0 33 7 1 0.621
1808 18 3 207 3 0 3 34 7 3 0.544
1809 18 3 208 0 0 2 35 7 0 0.703
1810 18 3 209 3 0 0 32 7 3 1.208
1811 18 3 210 3 1 2 32 7 3 0.502
1812 18 3 211 1 0 2 31 7 1 0.862
1813 18 3 212 1 1 1 31 7 1 1.401
1814 18 3 213 1 1 2 32 7 1 0.825
1815 18 3 214 0 0 2 32 7 0 0.766
1816 18 3 215 0 1 1 33 7 2 0.812
1817 18 3 216 1 1 0 32 7 1 0.709
1818 18 3 217 1 0 1 34 7 3 0.606
1819 18 3 218 3 1 1 31 7 3 0.494
1820 18 3 219 1 1 2 32 7 0 0.622
1821 18 3 220 2 1 3 31 7 2 0.757
1822 18 3 221 3 1 0 33 7 3 0.54
1823 18 3 222 2 1 0 34 7 3 0.522
1824 18 3 223 1 0 2 32 7 1 0.477
1825 18 3 224 2 0 1 31 7 1 0.526
1826 18 3 225 1 1 3 31 7 3 0.697
1827 18 3 226 2 0 1 32 7 1 0.422
1828 18 3 227 0 0 3 32 7 0 0.604
1829 18 3 228 2 0 3 32 7 0 0.536
1830 18 3 229 3 0 2 31 7 2 1.146
1831 18 3 230 2 1 1 31 7 2 0.487
1832 18 3 231 0 0 0 35 7 0 0.887
1833 18 3 232 3 0 1 31 7 3 0.738
1834 18 3 233 0 1 3 31 7 2 0.624
1835 18 3 234 0 0 3 31 7 1 0.709
1836 18 3 235 3 0 3 38 7 0 0.625
1837 18 3 236 1 1 2 31 7 1 0.473
1838 18 3 237 1 0 3 33 7 1 0.458
1839 18 3 238 2 0 2 34 7 2 0.427
1840 18 3 239 3 0 2 34 7 3 0.694
1841 18 3 240 0 1 3 32 7 3 1.079
1842 18 3 241 1 1 1 32 7 0 0.574
1843 18 3 242 2 0 2 31 7 1 0.495
1844 18 3 243 3 1 0 33 7 3 0.611
1845 18 3 244 3 1 0 34 7 3 1.079
1846 18 3 245 1 1 2 31 7 1 1.003
1847 18 3 246 2 1 1 34 7 0 0.561
1848 18 3 247 3 1 2 32 7 3 0.626
1849 18 3 248 2 1 3 35 7 0 1.238
1850 18 3 249 2 0 0 33 7 1 0.607
1851 18 3 250 0 1 2 33 7 2 0.551
1852 18 3 251 1 0 3 31 7 1 1.073
1853 18 3 252 1 1 0 34 7 3 0.748
1854 18 3 253 0 0 2 31 7 0 0.903
1855 18 3 254 0 1 2 41 7 2 0.961
1856 18 3 255 1 0 2 39 7 1 0.86
1857 18 4 256 0 0 3 32 7 0 0.75
1858 18 4 257 0 1 0 36 7 3 1.293
1859 18 4 258 1 0 2 34 7 1 0.396
1860 18 4 259 2 0 0 31 7 1 0.528
1861 18 4 260 0 0 0 39 7 3 0.931
1862 18 4 261 3 0 1 31 7 3 0.568
1863 18 4 262 2 0 3 35 7 1 0.54
1864 18 4 263 2 1 2 31 7 1 0.454
1865 18 4 264 0 0 3 33 7 0 0.644
1866 18 4 265 1 0 0 35 7 1 0.575
1867 18 4 266 0 0 1 31 7 2 0.764
1868 18 4 267 2 0 3 33 7 1 0.79
1869 18 4 268 1 1 1 33 7 1 0.712
1870 18 4 269 1 0 2 32 7 1 0.432
1871 18 4 270 1 1 3 32 7 1 0.507
1872 18 4 271 2 1 0 33 7 3 0.883
1873 18 4 272 3 1 2 34 7 3 0.641
1874 18 4 273 0 1 2 31 7 3 0.716
1875 18 4 274 2 1 3 31 7 3 1.064
1876 18 4 275 1 0 1 33 7 1 0.48
1877 18 4 276 0 0 1 31 7 0 0.545
1878 18 4 277 3 0 1 33 7 3 0.631
1879 18 4 278 1 1 0 31 7 2 0.971
1880 18 4 279 3 1 3 32 7 3 0.662
1881 18 4 280 1 1 1 31 7 1 0.52
1882 18 4 281 0 0 1 33 7 0 0.663
1883 18 4 282 1 1 3 31 7 1 0.642
1884 18 4 283 3 0 2 31 7 2 0.581
1885 18 4 284 2 1 1 34 7 1 0.662
1886 18 4 285 2 0 2 34 7 2 0.54
1887 18 4 286 0 1 3 32 7 3 0.674
1888 18 4 287 0 1 0 32 7 0 0.632
1889 18 4 288 2 0 0 33 7 1 0.659
1890 18 4 289 0 0 1 32 7 0 0.721
1891 18 4 290 1 0 0 32 7 1 0.505
1892 18 4 291 0 1 1 35 7 0 0.625
1893 18 4 292 1 1 1 31 7 1 0.589
1894 18 4 293 1 0 1 37 7 1 0.442
1895 18 4 294 0 1 3 31 7 2 0.876
1896 18 4 295 1 0 1 32 7 1 0.442
1897 18 4 296 0 0 1 32 7 0 0.556
1898 18 4 297 2 0 1 34 7 2 0.522
1899 18 4 298 2 1 1 31 7 1 0.601
1900 18 4 299 1 0 0 36 7 1 0.473
1901 18 4 300 1 1 1 32 7 1 0.466
1902 18 4 301 0 1 2 34 7 0 0.948
1903 18 4 302 0 0 1 32 7 0 0.58
1904 18 4 303 2 0 2 32 7 2 0.529
1905 18 4 304 1 0 2 34 7 1 0.504
1906 18 4 305 0 1 1 32 7 0 0.648
1907 18 4 306 2 0 3 32 7 1 0.467
1908 18 4 307 1 0 1 31 7 1 0.456
1909 18 4 308 3 1 1 35 7 2 0.554
1910 18 4 309 3 1 3 31 7 2 0.747
1911 18 4 310 0 1 0 31 7 0 0.599
1912 18 4 311 3 1 2 32 7 2 0.619
1913 18 4 312 1 1 3 31 7 2 0.794
1914 18 4 313 3 1 3 32 7 3 0.7
1915 18 4 314 3 0 3 35 7 3 0.357
1916 18 4 315 2 0 0 33 7 2 0.546
1917 18 4 316 1 0 3 33 7 1 0.545
1918 18 4 317 2 0 0 34 7 2 0.935
1919 18 4 318 2 1 3 33 7 0 0.952
1920 18 4 319 3 0 0 32 7 2 0.499
1921 21 0 0 2 1 1 35 7 1 1.064
1922 21 0 1 1 0 3 32 7 1 0.708
1923 21 0 2 0 0 3 31 7 0 0.728
1924 21 0 3 0 0 3 31 7 2 1.148
1925 21 0 4 3 1 0 31 7 1 0.636
1926 21 0 5 3 0 1 31 7 3 1.382
1927 21 0 6 1 0 2 31 7 2 1.178
1928 21 0 7 3 1 0 36 7 2 1.049
1929 21 0 8 2 0 3 32 7 2 2.448
1930 21 0 9 0 1 2 32 7 1 0.774
1931 21 0 10 0 1 1 39 7 1 1.787
1932 21 0 11 0 1 3 35 7 0 1.62
1933 21 0 12 0 1 1 32 7 1 0.6
1934 21 0 13 0 1 1 33 7 0 0.892
1935 21 0 14 2 0 3 31 7 1 0.705
1936 21 0 15 2 1 1 32 7 2 1.001
1937 21 0 16 3 1 1 38 7 2 0.771
1938 21 0 17 2 1 3 31 7 2 0.841
1939 21 0 18 1 1 3 31 7 2 0.488
1940 21 0 19 3 0 3 31 7 2 1.16
1941 21 0 20 2 0 1 31 7 2 0.551
1942 21 0 21 0 1 2 33 7 1 1.026
1943 21 0 22 2 0 0 38 7 2 0.598
1944 21 0 23 0 0 2 34 7 1 0.694
1945 21 0 24 2 0 1 35 7 2 0.439
1946 21 0 25 3 0 1 31 7 3 1.076
1947 21 0 26 2 1 2 36 7 1 0.972
1948 21 0 27 1 1 1 34 7 1 0.57
1949 21 0 28 0 0 3 33 7 2 0.827
1950 21 0 29 3 0 0 31 7 3 1.006
1951 21 0 30 1 0 1 32 7 1 0.752
1952 21 0 31 1 0 0 32 7 1 1.002
1953 21 0 32 0 1 2 37 7 1 0.54
1954 21 0 33 3 0 2 35 7 1 1.77
1955 21 0 34 0 0 1 32 7 1 0.691
1956 21 0 35 0 1 2 37 7 1 0.804
1957 21 0 36 2 1 3 31 7 3 0.856
1958 21 0 37 3 0 1 33 7 3 0.626
1959 21 0 38 0 0 1 32 7 0 1.21
1960 21 0 39 3 1 3 31 7 3 1.1
1961 21 0 40 2 0 3 33 7 3 1.018
1962 21 0 41 1 0 2 31 7 1 1.038
1963 21 0 42 3 0 1 31 7 2 0.983
1964 21 0 43 3 1 0 35 7 1 0.717
1965 21 0 44 2 0 1 31 7 1 1.533
1966 21 0 45 2 1 2 40 7 2 0.855
1967 21 0 46 3 0 0 34 7 2 0.814
1968 21 0 47 3 1 1 39 7 3 0.714
1969 21 0 48 3 0 3 32 7 3 0.621
1970 21 0 49 2 1 2 32 7 2 0.685
1971 21 0 50 2 1 2 32 7 2 0.489
1972 21 0 51 3 0 0 31 7 3 0.613
1973 21 0 52 2 0 2 31 7 2 0.503
1974 21 0 53 2 0 0 31 7 2 0.418
1975 21 0 54 2 1 1 33 7 3 0.665
1976 21 0 55 2 0 2 34 7 2 0.466
1977 21 0 56 1 1 1 32 7 1 0.799
1978 21 0 57 2 0 1 32 7 2 0.809
1979 21 0 58 3 0 3 31 7 3 0.585
1980 21 0 59 1 0 0 33 7 2 0.482
1981 21 0 60 3 1 2 33 7 1 0.81
1982 21 0 61 0 1 3 32 7 3 0.662
1983 21 0 62 0 1 0 31 7 2 0.775
1984 21 0 63 0 0 2 35 7 2 1.917
1985 21 1 64 0 0 2 31 7 2 1.298
1986 21 1 65 2 1 3 32 7 3 0.685
1987 21 1 66 3 1 1 36 7 3 0.509
1988 21 1 67 2 0 3 33 7 2 2.008
1989 21 1 68 3 1 2 33 7 3 0.59
1990 21 1 69 0 1 0 31 7 2 0.639
1991 21 1 70 3 0 0 32 7 3 0.561
1992 21 1 71 1 0 0 31 7 1 0.626
1993 21 1 72 3 1 0 32 7 1 0.569
1994 21 1 73 0 1 1 33 7 0 1.246
1995 21 1 74 0 0 2 32 7 2 0.583
1996 21 1 75 2 0 3 31 7 3 0.58
1997 21 1 76 2 1 3 31 7 3 0.624
1998 21 1 77 3 0 2 34 7 3 0.451
1999 21 1 78 1 1 3 31 7 3 0.545
2000 21 1 79 3 0 0 33 7 2 0.71
2001 21 1 80 0 1 0 31 7 2 0.47
2002 21 1 81 3 0 3 32 7 3 0.566
2003 21 1 82 2 0 1 31 7 2 1.128
2004 21 1 83 2 1 0 34 7 2 0.445
2005 21 1 84 2 1 1 36 7 2 0.443
2006 21 1 85 2 0 2 31 7 2 0.505
2007 21 1 86 0 1 0 31 7 2 0.5
2008 21 1 87 0 0 2 31 7 1 1.299
2009 21 1 88 0 1 1 35 7 0 0.734
2010 21 1 89 0 1 1 31 7 1 1.097
2011 21 1 90 0 1 0 32 7 1 0.595
2012 21 1 91 2 1 2 31 7 2 0.599
2013 21 1 92 1 0 2 34 7 1 1.367
2014 21 1 93 1 0 3 31 7 1 1.316
2015 21 1 94 2 1 3 35 7 1 0.786
2016 21 1 95 2 0 1 31 7 2 0.599
2017 21 1 96 3 0 3 31 7 3 0.479
2018 21 1 97 3 1 2 32 7 3 0.387
2019 21 1 98 0 1 3 33 7 3 0.362
2020 21 1 99 1 1 3 35 7 3 0.407
2021 21 1 100 1 1 3 34 7 1 0.553
2022 21 1 101 0 1 3 31 7 0 0.547
2023 21 1 102 1 1 2 32 7 1 0.605
2024 21 1 103 1 1 2 31 7 1 0.509
2025 21 1 104 1 1 2 35 7 1 0.384
2026 21 1 105 3 0 2 31 7 3 0.6
2027 21 1 106 1 0 1 31 7 3 0.961
2028 21 1 107 2 1 1 32 7 2 1.063
2029 21 1 108 1 1 3 33 7 1 0.911
2030 21 1 109 3 0 3 40 7 3 0.556
2031 21 1 110 1 0 2 33 7 1 0.534
2032 21 1 111 1 1 1 31 7 2 0.6
2033 21 1 112 3 0 2 34 7 3 0.492
2034 21 1 113 0 1 3 31 7 3 0.632
2035 21 1 114 0 1 1 36 7 2 0.803
2036 21 1 115 3 1 1 32 7 3 0.511
2037 21 1 116 3 0 3 33 7 3 2.034
2038 21 1 117 1 0 1 31 7 1 0.727
2039 21 1 118 1 1 3 32 7 3 0.466
2040 21 1 119 3 1 0 38 7 3 0.819
2041 21 1 120 3 1 2 32 7 3 0.403
2042 21 1 121 3 1 2 35 7 3 0.37
2043 21 1 122 1 1 2 33 7 1 0.45
2044 21 1 123 1 0 3 32 7 1 0.472
2045 21 1 124 3 0 2 37 7 3 0.476
2046 21 1 125 3 0 2 31 7 3 0.329
2047 21 1 126 3 1 3 31 7 3 0.435
2048 21 1 127 2 1 1 31 7 3 0.649
2049 21 2 128 2 1 2 36 7 3 0.427
2050 21 2 129 0 0 3 32 7 3 0.581
2051 21 2 130 2 0 0 31 7 2 0.417
2052 21 2 131 0 0 1 31 7 1 0.416
2053 21 2 132 2 1 0 31 7 1 0.427
2054 21 2 133 1 1 2 31 7 1 0.405
2055 21 2 134 0 1 3 32 7 2 0.964
2056 21 2 135 1 1 3 32 7 1 0.554
2057 21 2 136 3 0 2 33 7 3 0.908
2058 21 2 137 0 1 2 46 7 2 0.577
2059 21 2 138 1 0 2 31 7 2 0.63
2060 21 2 139 1 1 3 32 7 1 0.792
2061 21 2 140 1 0 3 34 7 1 0.346
2062 21 2 141 0 0 3 31 7 1 0.971
2063 21 2 142 3 1 2 32 7 3 0.457
2064 21 2 143 3 1 3 34 7 3 0.478
2065 21 2 144 2 0 0 32 7 2 0.611
2066 21 2 145 2 0 1 32 7 2 0.387
2067 21 2 146 0 0 1 32 7 2 0.394
2068 21 2 147 2 0 0 32 7 1 0.765
2069 21 2 148 3 1 3 32 7 3 0.731
2070 21 2 149 0 1 2 32 7 3 0.439
2071 21 2 150 2 1 0 31 7 2 0.496
2072 21 2 151 2 0 2 31 7 2 0.581
2073 21 2 152 0 0 3 32 7 3 0.526
2074 21 2 153 2 1 1 37 7 2 0.54
2075 21 2 154 0 1 0 34 7 2 0.638
2076 21 2 155 3 0 0 34 7 3 0.688
2077 21 2 156 1 1 0 31 7 1 0.461
2078 21 2 157 2 1 0 42 7 2 0.53
2079 21 2 158 1 1 0 31 7 1 0.46
2080 21 2 159 2 0 0 31 7 2 0.562
2081 21 2 160 3 1 0 31 7 3 0.779
2082 21 2 161 0 0 0 32 7 0 0.508
2083 21 2 162 1 0 0 32 7 1 0.472
2084 21 2 163 0 1 0 31 7 0 0.596
2085 21 2 164 3 0 2 31 7 2 1.125
2086 21 2 165 2 0 3 32 7 2 0.733
2087 21 2 166 3 1 2 31 7 3 0.552
2088 21 2 167 3 1 3 31 7 3 0.514
2089 21 2 168 3 1 3 31 7 3 0.421
2090 21 2 169 0 0 3 32 7 0 0.524
2091 21 2 170 0 1 1 31 7 3 1.407
2092 21 2 171 1 1 0 31 7 2 0.517
2093 21 2 172 3 1 2 33 7 3 0.436
2094 21 2 173 0 1 0 32 7 1 0.514
2095 21 2 174 2 0 1 32 7 2 0.491
2096 21 2 175 1 1 2 33 7 3 0.687
2097 21 2 176 2 1 1 31 7 2 0.592
2098 21 2 177 3 1 0 31 7 3 0.424
2099 21 2 178 0 1 1 35 7 2 0.574
2100 21 2 179 0 1 3 35 7 3 0.483
2101 21 2 180 1 0 3 31 7 3 0.539
2102 21 2 181 1 0 3 33 7 1 0.569
2103 21 2 182 0 0 1 32 7 2 0.866
2104 21 2 183 0 0 0 31 7 1 0.46
2105 21 2 184 1 0 2 36 7 1 0.437
2106 21 2 185 2 0 0 32 7 1 0.482
2107 21 2 186 3 0 0 34 7 3 0.859
2108 21 2 187 2 0 2 36 7 2 0.425
2109 21 2 188 1 0 2 31 7 2 0.36
2110 21 2 189 3 1 3 33 7 3 0.596
2111 21 2 190 1 0 0 37 7 2 0.684
2112 21 2 191 0 0 3 37 7 3 1.469
2113 21 3 192 3 0 2 31 7 3 1.349
2114 21 3 193 0 1 2 31 7 3 0.498
2115 21 3 194 3 1 1 31 7 3 0.418
2116 21 3 195 2 0 2 32 7 2 0.593
2117 21 3 196 2 1 0 37 7 2 0.377
2118 21 3 197 3 0 2 32 7 3 0.409
2119 21 3 198 0 0 3 31 7 3 0.552
2120 21 3 199 0 0 2 31 7 2 0.485
2121 21 3 200 3 1 3 39 7 3 0.541
2122 21 3 201 0 0 1 31 7 2 0.775
2123 21 3 202 2 0 0 32 7 2 0.404
2124 21 3 203 0 1 3 31 7 1 1.027
2125 21 3 204 1 0 1 31 7 0 0.575
2126 21 3 205 1 1 1 31 7 1 0.692
2127 21 3 206 3 0 0 31 7 3 1.041
2128 21 3 207 1 0 1 31 7 3 0.737
2129 21 3 208 1 1 3 32 7 3 0.48
2130 21 3 209 2 0 0 33 7 3 0.496
2131 21 3 210 2 1 3 32 7 2 0.727
2132 21 3 211 1 1 1 36 7 1 0.571
2133 21 3 212 2 1 3 36 7 2 2.5
2134 21 3 213 0 0 0 32 7 1 0.664
2135 21 3 214 2 0 2 37 7 2 0.425
2136 21 3 215 1 1 1 32 7 1 0.616
2137 21 3 216 2 1 0 31 7 2 0.759
2138 21 3 217 0 1 0 31 7 0 1.058
2139 21 3 218 3 0 0 31 7 3 1.362
2140 21 3 219 1 0 0 31 7 1 0.423
2141 21 3 220 2 1 0 31 7 2 0.469
2142 21 3 221 1 1 0 31 7 1 0.433
2143 21 3 222 1 0 0 35 7 1 0.495
2144 21 3 223 0 0 0 31 7 0 0.443
2145 21 3 224 1 1 1 34 7 2 0.585
2146 21 3 225 2 1 0 36 7 1 0.749
2147 21 3 226 3 0 1 31 7 3 0.523
2148 21 3 227 3 1 1 31 7 3 0.534
2149 21 3 228 2 0 3 33 7 3 2.032
2150 21 3 229 3 1 2 32 7 3 0.513
2151 21 3 230 3 0 3 41 7 3 1.804
2152 21 3 231 0 1 2 32 7 0 0.809
2153 21 3 232 0 0 2 31 7 1 2.809
2154 21 3 233 1 0 3 32 7 3 0.621
2155 21 3 234 2 1 3 31 7 2 0.647
2156 21 3 235 0 0 2 32 7 2 0.438
2157 21 3 236 1 0 2 33 7 2 0.399
2158 21 3 237 1 1 0 36 7 1 0.53
2159 21 3 238 2 1 0 36 7 2 0.805
2160 21 3 239 3 1 0 31 7 3 0.414
2161 21 3 240 3 0 3 31 7 3 0.924
2162 21 3 241 1 1 1 48 7 1 0.408
2163 21 3 242 0 0 1 33 7 1 0.535
2164 21 3 243 0 0 1 36 7 1 0.581
2165 21 3 244 3 0 0 32 7 3 0.522
2166 21 3 245 3 0 1 31 7 2 2.02
2167 21 3 246 1 0 1 31 7 1 0.517
2168 21 3 247 1 0 0 31 7 1 0.544
2169 21 3 248 0 0 1 33 7 0 0.451
2170 21 3 249 2 0 0 35 7 1 0.512
2171 21 3 250 2 1 3 33 7 3 0.623
2172 21 3 251 3 1 1 32 7 3 0.554
2173 21 3 252 0 0 0 32 7 2 0.379
2174 21 3 253 0 1 2 34 7 2 0.463
2175 21 3 254 2 1 3 35 7 2 0.536
2176 21 3 255 1 1 1 38 7 1 0.466
2177 21 4 256 3 1 1 31 7 0 1.44
2178 21 4 257 1 1 0 31 7 1 0.349
2179 21 4 258 3 1 3 34 7 3 0.447
2180 21 4 259 3 0 1 32 7 3 0.3
2181 21 4 260 3 0 3 34 7 3 0.407
2182 21 4 261 0 0 2 32 7 1 0.814
2183 21 4 262 1 0 1 33 7 1 0.347
2184 21 4 263 2 0 3 37 7 2 0.396
2185 21 4 264 3 1 1 33 7 3 0.467
2186 21 4 265 3 0 1 36 7 3 0.368
2187 21 4 266 0 0 0 33 7 2 0.377
2188 21 4 267 1 1 2 32 7 1 0.42
2189 21 4 268 0 0 3 34 7 1 0.619
2190 21 4 269 1 1 3 34 7 1 0.669
2191 21 4 270 1 0 2 35 7 1 0.475
2192 22 0 0 2 1 0 34 7 0 0.584
2193 21 4 271 1 0 2 34 7 1 0.295
2194 21 4 272 2 1 1 35 7 2 0.546
2195 22 0 1 1 1 2 31 7 0 1.837
2196 21 4 273 2 1 0 38 7 2 0.548
2197 22 0 2 0 1 3 32 7 0 1.429
2198 21 4 274 0 1 3 31 7 3 1.015
2199 22 0 3 0 1 1 31 7 0 0.665
2200 21 4 275 2 0 2 38 7 2 0.396
2201 22 0 4 0 1 3 31 7 0 0.599
2202 21 4 276 1 0 3 35 7 3 1.915
2203 22 0 5 2 0 1 36 7 2 0.968
2204 21 4 277 3 0 1 34 7 1 0.487
2205 22 0 6 1 1 1 33 7 2 0.572
2206 21 4 278 1 0 1 31 7 1 0.367
2207 22 0 7 3 0 3 32 7 3 0.961
2208 21 4 279 1 1 0 35 7 1 0.392
2209 22 0 8 0 0 3 32 7 3 0.484
2210 21 4 280 1 0 1 32 7 1 0.399
2211 22 0 9 3 1 2 31 7 1 0.957
2212 21 4 281 1 0 1 31 7 1 0.319
2213 22 0 10 0 1 2 31 7 0 0.629
2214 21 4 282 0 1 0 31 7 1 0.457
2215 21 4 283 1 1 0 31 7 1 0.29
2216 22 0 11 3 1 2 36 7 3 0.868
2217 21 4 284 0 1 2 31 7 1 0.301
2218 22 0 12 0 1 0 39 7 1 1.531
2219 21 4 285 3 1 1 32 7 3 0.436
2220 21 4 286 0 0 0 31 7 1 0.481
2221 22 0 13 2 0 1 31 7 2 0.862
2222 21 4 287 2 1 2 31 7 2 0.433
2223 22 0 14 3 0 2 32 7 3 0.597
2224 21 4 288 1 1 1 31 7 1 0.424
2225 22 0 15 1 0 0 31 7 2 0.742
2226 22 0 16 2 0 2 34 7 2 0.837
2227 21 4 289 1 0 0 35 7 2 1.974
2228 22 0 17 2 0 1 31 7 2 0.766
2229 21 4 290 0 0 0 32 7 2 0.401
2230 21 4 291 3 1 0 31 7 3 0.524
2231 22 0 18 1 1 1 33 7 1 0.953
2232 21 4 292 0 0 1 31 7 0 0.646
2233 22 0 19 0 1 3 32 7 2 0.748
2234 22 0 20 2 1 2 32 7 1 0.908
2235 21 4 293 2 1 2 32 7 1 1.229
2236 22 0 21 1 0 2 31 7 1 0.58
2237 21 4 294 1 1 2 40 7 2 0.506
2238 21 4 295 2 1 1 31 7 2 0.377
2239 22 0 22 2 1 2 35 7 2 0.758
2240 21 4 296 0 0 0 31 7 1 0.777
2241 22 0 23 3 1 2 31 7 3 0.689
2242 21 4 297 0 0 0 33 7 0 0.447
2243 22 0 24 0 1 1 34 7 3 0.558
2244 21 4 298 1 1 2 31 7 1 0.516
2245 22 0 25 3 0 2 35 7 2 0.756
2246 21 4 299 2 0 3 32 7 2 0.904
2247 22 0 26 0 1 3 31 7 2 0.819
2248 21 4 300 1 0 3 37 7 2 0.435
2249 22 0 27 3 0 2 34 7 3 0.559
2250 21 4 301 1 0 3 33 7 1 0.557
2251 22 0 28 0 0 0 34 7 2 0.793
2252 21 4 302 2 0 1 40 7 1 0.486
2253 22 0 29 0 1 0 31 7 2 0.983
2254 21 4 303 2 0 2 32 7 2 0.182
2255 22 0 30 0 0 1 32 7 2 0.893
2256 21 4 304 3 1 2 37 7 2 0.517
2257 21 4 305 2 1 2 31 7 2 0.372
2258 22 0 31 0 1 2 38 7 0 0.855
2259 21 4 306 1 1 0 34 7 1 0.468
2260 22 0 32 0 1 0 31 7 0 0.59
2261 21 4 307 0 0 2 31 7 1 0.393
2262 22 0 33 2 0 3 33 7 2 0.607
2263 21 4 308 2 0 2 33 7 2 0.692
2264 22 0 34 2 1 0 32 7 2 0.927
2265 21 4 309 0 1 3 33 7 3 0.408
2266 22 0 35 2 0 0 33 7 2 0.709
2267 21 4 310 1 1 0 33 7 3 0.498
2268 22 0 36 2 1 1 31 7 2 0.593
2269 21 4 311 2 0 1 33 7 2 0.499
2270 22 0 37 2 0 0 36 7 2 0.642
2271 21 4 312 1 1 2 32 7 1 0.439
2272 22 0 38 1 1 1 31 7 2 0.514
2273 22 0 39 0 0 0 31 7 0 0.681
2274 21 4 313 1 0 0 32 7 0 2.444
2275 22 0 40 3 1 0 32 7 3 0.727
2276 21 4 314 0 1 1 33 7 1 0.35
2277 21 4 315 3 1 0 35 7 3 0.451
2278 22 0 41 2 1 3 34 7 2 1.011
2279 22 0 42 2 0 2 31 7 2 0.661
2280 21 4 316 2 0 3 35 7 2 1.2
2281 22 0 43 1 1 0 33 7 2 0.564
2282 21 4 317 2 1 2 31 7 2 0.483
2283 22 0 44 1 0 0 34 7 3 0.602
2284 21 4 318 3 0 1 34 7 3 0.663
2285 22 0 45 2 1 2 31 7 2 0.909
2286 21 4 319 3 1 3 35 7 3 0.541
2287 22 0 46 0 1 0 33 7 2 0.547
2288 22 0 47 0 0 2 31 7 2 0.473
2289 22 0 48 1 0 3 31 7 2 1.218
2290 22 0 49 2 1 3 31 7 2 0.704
2291 22 0 50 0 0 1 33 7 2 0.493
2292 22 0 51 0 0 2 38 7 2 0.693
2293 22 0 52 3 0 0 36 7 3 0.582
2294 22 0 53 2 1 0 31 7 2 0.743
2295 22 0 54 2 1 1 32 7 2 0.563
2296 22 0 55 2 0 0 31 7 2 0.597
2297 22 0 56 3 1 2 31 7 3 0.438
2298 22 0 57 0 1 2 35 7 2 0.748
2299 22 0 58 3 1 1 41 7 2 0.556
2300 22 0 59 3 1 1 32 7 3 0.609
2301 22 0 60 3 0 2 33 7 3 0.514
2302 22 0 61 3 0 1 31 7 3 0.47
2303 22 0 62 3 1 0 31 7 2 0.683
2304 22 0 63 3 0 1 31 7 3 0.444
2305 22 1 64 2 0 2 31 7 2 0.588
2306 22 1 65 3 0 3 34 7 3 0.445
2307 22 1 66 2 1 2 32 7 2 0.627
2308 22 1 67 0 1 1 34 7 2 0.675
2309 22 1 68 1 0 3 32 7 1 0.869
2310 22 1 69 2 0 2 34 7 2 0.779
2311 22 1 70 3 1 1 39 7 3 0.501
2312 22 1 71 2 1 3 33 7 2 0.761
2313 22 1 72 1 1 3 33 7 1 0.82
2314 22 1 73 2 1 1 31 7 2 1.021
2315 22 1 74 3 0 3 33 7 3 0.542
2316 22 1 75 0 0 2 31 7 2 0.513
2317 22 1 76 1 1 2 31 7 3 0.505
2318 22 1 77 0 1 2 32 7 0 0.704
2319 22 1 78 0 0 1 31 7 2 0.605
2320 22 1 79 3 0 3 35 7 3 0.417
2321 22 1 80 1 1 1 32 7 0 0.984
2322 22 1 81 3 1 2 31 7 3 0.655
2323 22 1 82 0 0 1 31 7 3 0.525
2324 22 1 83 3 0 1 34 7 3 0.596
2325 22 1 84 1 0 1 31 7 2 0.613
2326 22 1 85 3 0 1 31 7 3 0.377
2327 22 1 86 0 1 3 31 7 3 0.578
2328 22 1 87 1 0 0 31 7 2 0.775
2329 22 1 88 0 0 1 40 7 0 0.757
2330 22 1 89 0 0 3 36 7 1 0.704
2331 22 1 90 0 0 0 32 7 0 0.768
2332 22 1 91 0 1 3 31 7 3 0.667
2333 22 1 92 2 1 3 31 7 3 0.573
2334 22 1 93 3 0 2 45 7 3 0.498
2335 22 1 94 2 0 1 35 7 2 0.534
2336 22 1 95 0 1 3 31 7 3 0.601
2337 22 1 96 1 1 3 33 7 1 0.509
2338 22 1 97 2 0 0 31 7 2 0.656
2339 22 1 98 1 1 2 31 7 3 0.815
2340 22 1 99 1 0 3 33 7 1 0.684
2341 22 1 100 2 1 0 33 7 1 0.298
2342 22 1 101 3 1 2 31 7 2 0.009
2343 22 1 102 1 0 2 31 7 0 0.45
2344 22 1 103 1 0 1 32 7 0 0.604
2345 22 1 104 1 0 0 32 7 2 0.64
2346 22 1 105 2 1 0 35 7 2 0.691
2347 22 1 106 0 0 0 33 7 2 0.448
2348 22 1 107 0 1 1 33 7 3 0.698
2349 22 1 108 1 1 3 32 7 3 0.571
2350 22 1 109 3 0 0 38 7 3 0.576
2351 22 1 110 0 1 2 31 7 3 0.386
2352 22 1 111 2 1 3 31 7 1 0.51
2353 22 1 112 0 0 1 33 7 1 0.646
2354 22 1 113 2 1 0 31 7 3 0.52
2355 22 1 114 0 1 1 34 7 2 0.879
2356 22 1 115 2 1 1 31 7 2 0.842
2357 22 1 116 3 0 2 32 7 3 0.577
2358 22 1 117 2 0 2 37 7 1 0.563
2359 22 1 118 3 1 3 32 7 2 0.728
2360 22 1 119 1 1 0 31 7 2 0.808
2361 22 1 120 3 0 1 42 7 2 1.045
2362 22 1 121 2 0 1 33 7 2 0.521
2363 22 1 122 3 0 3 31 7 3 0.476
2364 22 1 123 3 0 2 33 7 3 0.577
2365 22 1 124 1 0 0 36 7 2 0.579
2366 22 1 125 2 0 0 31 7 2 0.504
2367 22 1 126 1 1 3 34 7 3 0.908
2368 22 1 127 1 0 0 32 7 2 0.549
2369 22 2 128 3 1 3 34 7 3 0.578
2370 22 2 129 1 1 2 35 7 2 1.347
2371 22 2 130 0 1 2 35 7 2 0.669
2372 22 2 131 1 1 2 33 7 1 2.543
2373 22 2 132 2 1 0 31 7 2 0.73
2374 22 2 133 2 0 0 31 7 2 0.886
2375 22 2 134 1 1 3 39 7 1 0.604
2376 22 2 135 0 1 1 31 7 3 0.972
2377 22 2 136 0 0 2 31 7 1 0.611
2378 22 2 137 1 1 1 35 7 2 0.855
2379 22 2 138 1 1 2 35 7 1 0.674
2380 22 2 139 2 0 1 33 7 2 0.56
2381 22 2 140 3 0 3 34 7 3 0.418
2382 22 2 141 2 1 0 31 7 2 0.681
2383 22 2 142 3 0 3 32 7 3 0.407
2384 22 2 143 2 1 2 33 7 2 0.639
2385 22 2 144 0 0 0 32 7 2 0.51
2386 22 2 145 1 1 0 37 7 2 1.941
2387 22 2 146 2 1 1 32 7 1 0.682
2388 22 2 147 0 0 3 31 7 1 0.571
2389 22 2 148 2 1 2 40 7 1 0.656
2390 22 2 149 2 1 3 36 7 3 0.691
2391 22 2 150 0 1 2 38 7 3 0.692
2392 22 2 151 0 0 3 31 7 1 0.564
2393 22 2 152 2 0 0 32 7 2 1.018
2394 22 2 153 1 0 3 31 7 1 0.524
2395 22 2 154 1 0 1 31 7 1 0.591
2396 22 2 155 2 1 0 31 7 1 0.608
2397 22 2 156 0 0 3 42 7 2 0.66
2398 22 2 157 2 1 2 38 7 2 0.566
2399 22 2 158 0 1 0 34 7 2 0.584
2400 22 2 159 2 1 1 31 7 1 0.573
2401 22 2 160 1 0 3 34 7 2 0.834
2402 22 2 161 3 1 1 34 7 3 0.591
2403 22 2 162 0 1 0 31 7 3 0.608
2404 22 2 163 3 1 3 32 7 3 1.22
2405 22 2 164 3 1 0 36 7 2 0.642
2406 22 2 165 3 0 3 31 7 3 0.437
2407 22 2 166 1 0 2 35 7 1 0.603
2408 22 2 167 1 0 1 31 7 1 0.475
2409 22 2 168 1 0 0 31 7 3 0.513
2410 22 2 169 2 0 3 37 7 2 0.952
2411 22 2 170 0 1 2 36 7 3 0.764
2412 22 2 171 3 1 3 36 7 3 0.587
2413 22 2 172 0 1 0 32 7 0 0.699
2414 22 2 173 2 0 3 31 7 2 0.521
2415 22 2 174 1 0 2 31 7 1 0.572
2416 22 2 175 2 0 1 31 7 2 0.555
2417 22 2 176 2 0 1 39 7 1 1.054
2418 22 2 177 1 0 1 32 7 1 0.657
2419 22 2 178 1 1 2 31 7 1 0.64
2420 22 2 179 1 0 3 31 7 2 1.183
2421 22 2 180 3 1 3 32 7 3 0.719
2422 22 2 181 0 0 1 31 7 1 0.635
2423 22 2 182 3 1 1 32 7 2 0.766
2424 22 2 183 3 0 0 33 7 3 0.7
2425 22 2 184 2 0 0 31 7 2 0.505
2426 22 2 185 3 1 0 33 7 3 0.717
2427 22 2 186 2 1 3 33 7 2 0.905
2428 22 2 187 2 1 1 33 7 1 0.607
2429 22 2 188 3 1 0 35 7 3 0.723
2430 22 2 189 2 0 3 33 7 2 0.655
2431 22 2 190 1 1 1 32 7 1 0.686
2432 22 2 191 1 1 0 35 7 1 0.571
2433 22 3 192 3 1 1 34 7 3 0.49
2434 22 3 193 0 0 3 31 7 2 0.719
2435 22 3 194 0 0 1 31 7 2 0.511
2436 22 3 195 3 0 0 32 7 3 0.486
2437 22 3 196 1 0 1 31 7 1 0.555
2438 22 3 197 3 1 2 33 7 3 0.541
2439 22 3 198 3 0 2 32 7 3 0.448
2440 22 3 199 2 1 2 34 7 2 0.918
2441 22 3 200 3 0 1 31 7 3 0.491
2442 22 3 201 1 1 1 35 7 1 0.64
2443 22 3 202 1 1 2 32 7 0 0.751
2444 22 3 203 3 0 3 31 7 3 0.542
2445 22 3 204 3 1 0 33 7 3 0.432
2446 22 3 205 3 1 0 34 7 3 0.583
2447 22 3 206 2 0 1 33 7 2 0.521
2448 22 3 207 3 1 2 31 7 3 0.588
2449 22 3 208 3 1 3 31 7 3 0.379
2450 22 3 209 0 1 3 32 7 3 0.468
2451 22 3 210 1 0 2 35 7 1 0.541
2452 22 3 211 1 1 0 35 7 1 0.496
2453 22 3 212 1 0 0 31 7 1 0.436
2454 22 3 213 0 1 1 32 7 1 0.73
2455 22 3 214 2 0 3 33 7 2 0.714
2456 22 3 215 0 0 3 35 7 2 0.439
2457 22 3 216 0 0 3 32 7 2 0.481
2458 22 3 217 2 0 0 32 7 2 0.762
2459 22 3 218 1 0 3 31 7 2 0.453
2460 22 3 219 3 1 3 31 7 3 0.622
2461 22 3 220 0 1 1 32 7 1 0.558
2462 22 3 221 0 0 2 34 7 2 0.659
2463 22 3 222 1 1 2 33 7 2 0.517
2464 22 3 223 0 0 2 31 7 2 0.573
2465 22 3 224 1 1 3 31 7 1 0.642
2466 22 3 225 2 0 3 35 7 2 0.657
2467 22 3 226 0 0 3 34 7 2 0.448
2468 22 3 227 3 0 0 32 7 3 0.602
2469 22 3 228 1 0 2 31 7 1 0.523
2470 22 3 229 3 1 3 33 7 2 0.894
2471 22 3 230 0 1 2 39 7 3 0.536
2472 22 3 231 1 0 2 36 7 1 0.527
2473 22 3 232 1 1 1 35 7 2 0.738
2474 22 3 233 1 0 2 32 7 1 0.481
2475 22 3 234 3 1 1 36 7 3 0.518
2476 22 3 235 0 1 3 31 7 3 0.474
2477 22 3 236 0 1 0 31 7 2 0.691
2478 22 3 237 3 0 0 33 7 3 0.5
2479 22 3 238 0 1 0 31 7 3 0.52
2480 22 3 239 1 0 2 31 7 1 0.479
2481 22 3 240 3 1 0 31 7 3 0.708
2482 22 3 241 3 0 0 32 7 3 0.529
2483 22 3 242 1 1 0 34 7 1 0.805
2484 22 3 243 3 1 1 31 7 3 0.51
2485 22 3 244 0 0 0 31 7 3 0.818
2486 22 3 245 1 1 0 31 7 3 0.622
2487 22 3 246 0 1 2 32 7 2 0.689
2488 22 3 247 1 1 0 31 7 1 0.69
2489 22 3 248 0 1 1 33 7 0 0.56
2490 22 3 249 1 0 2 31 7 2 0.498
2491 22 3 250 1 0 1 33 7 2 0.49
2492 22 3 251 2 1 2 31 7 2 0.738
2493 22 3 252 3 0 2 31 7 3 0.558
2494 22 3 253 0 0 0 33 7 1 0.688
2495 22 3 254 2 0 1 32 7 1 0.545
2496 22 3 255 0 1 0 34 7 2 0.695
2497 22 4 256 0 0 0 32 7 1 0.698
2498 22 4 257 2 0 3 33 7 2 0.539
2499 22 4 258 1 1 3 33 7 2 0.861
2500 22 4 259 2 1 0 36 7 2 0.712
2501 22 4 260 0 0 2 32 7 2 0.677
2502 22 4 261 0 0 2 35 7 2 0.471
2503 22 4 262 1 1 3 31 7 3 0.671
2504 22 4 263 0 0 2 33 7 1 0.689
2505 22 4 264 3 0 3 31 7 3 0.546
2506 22 4 265 2 0 2 31 7 2 0.581
2507 22 4 266 1 1 2 31 7 1 0.598
2508 22 4 267 3 0 1 31 7 2 0.807
2509 22 4 268 2 1 2 31 7 2 0.58
2510 22 4 269 3 1 1 31 7 3 0.517
2511 22 4 270 2 0 2 34 7 2 0.666
2512 22 4 271 1 1 0 32 7 2 0.712
2513 22 4 272 3 0 2 36 7 3 0.488
2514 22 4 273 1 0 0 31 7 1 0.525
2515 22 4 274 3 0 1 31 7 3 0.528
2516 22 4 275 3 0 1 31 7 3 0.42
2517 22 4 276 2 1 1 32 7 2 0.538
2518 22 4 277 2 0 0 32 7 2 0.845
2519 22 4 278 1 1 1 33 7 2 0.693
2520 22 4 279 3 1 3 31 7 3 0.518
2521 22 4 280 1 0 3 31 7 3 0.842
2522 22 4 281 2 1 1 31 7 2 0.581
2523 22 4 282 1 0 3 33 7 2 0.647
2524 22 4 283 0 0 1 33 7 3 0.362
2525 22 4 284 3 1 1 32 7 3 0.054
2526 22 4 285 2 1 3 31 7 3 0.81
2527 22 4 286 2 0 2 34 7 3 0.631
2528 22 4 287 2 1 3 31 7 2 0.539
2529 22 4 288 0 1 1 34 7 2 0.141
2530 22 4 289 1 1 0 31 7 3 0.018
2531 22 4 290 0 0 0 36 7 3 0.747
2532 22 4 291 1 0 1 31 7 1 0.026
2533 22 4 292 2 1 3 32 7 3 1.024
2534 22 4 293 1 1 3 31 7 1 0.565
2535 22 4 294 0 0 1 31 7 0 0.471
2536 22 4 295 3 0 0 45 7 3 0.54
2537 22 4 296 1 1 1 31 7 1 0.543
2538 22 4 297 3 1 2 32 7 3 0.481
2539 22 4 298 0 0 2 31 7 3 0.198
2540 22 4 299 3 1 3 31 7 3 0.681
2541 22 4 300 1 0 3 31 7 1 0.679
2542 22 4 301 3 1 0 32 7 3 0.485
2543 22 4 302 1 0 0 34 7 2 0.714
2544 22 4 303 2 0 3 31 7 1 0.715
2545 22 4 304 0 1 3 31 7 2 0.603
2546 22 4 305 1 0 1 32 7 1 0.527
2547 22 4 306 2 0 2 31 7 2 0.562
2548 22 4 307 3 0 0 31 7 3 0.484
2549 22 4 308 0 0 3 31 7 1 0.666
2550 22 4 309 0 0 0 40 7 0 0.492
2551 22 4 310 3 1 0 34 7 2 0.544
2552 22 4 311 2 0 3 32 7 2 0.519
2553 22 4 312 1 1 3 34 7 1 0.506
2554 22 4 313 1 0 1 31 7 1 0.622
2555 22 4 314 3 1 2 31 7 2 0.782
2556 22 4 315 3 0 1 34 7 3 0.524
2557 22 4 316 3 0 0 32 7 3 0.575
2558 22 4 317 2 0 2 32 7 2 0.464
2559 22 4 318 2 1 1 31 7 2 0.566
2560 22 4 319 2 0 3 34 7 1 0.536
2561 25 0 0 2 0 0 34 7 1 0.702
2562 25 0 1 0 1 2 31 7 0 1.255
2563 25 0 2 0 1 3 33 7 0 0.809
2564 25 0 3 2 1 2 34 7 0 0.796
2565 25 0 4 1 1 1 33 7 1 1.538
2566 25 0 5 3 1 2 31 7 1 1.482
2567 25 0 6 2 0 0 35 7 0 1.271
2568 25 0 7 2 1 2 32 7 0 1.116
2569 25 0 8 0 1 2 31 7 0 0.732
2570 25 0 9 1 0 0 31 7 1 1.633
2571 25 0 10 1 1 0 32 7 1 1.541
2572 25 0 11 1 0 3 39 7 1 0.653
2573 25 0 12 2 0 1 40 7 2 1.349
2574 25 0 13 2 1 3 34 7 0 0.819
2575 25 0 14 0 1 1 33 7 1 1.304
2576 25 0 15 1 0 3 43 7 1 0.62
2577 25 0 16 3 0 2 31 7 3 0.965
2578 25 0 17 2 1 1 32 7 0 1.009
2579 25 0 18 1 1 1 33 7 1 0.734
2580 25 0 19 3 1 2 34 7 3 0.931
2581 25 0 20 1 0 1 31 7 1 0.544
2582 25 0 21 1 1 2 32 7 1 0.796
2583 25 0 22 2 0 0 36 7 2 0.973
2584 25 0 23 0 0 0 32 7 0 0.793
2585 25 0 24 2 0 0 32 7 3 0.684
2586 25 0 25 2 1 0 31 7 2 1.094
2587 25 0 26 1 1 2 35 7 1 1.022
2588 25 0 27 0 0 1 31 7 2 0.761
2589 25 0 28 2 0 3 31 7 1 0.736
2590 25 0 29 3 0 1 34 7 3 0.952
2591 25 0 30 3 1 1 33 7 3 0.805
2592 25 0 31 2 1 3 35 7 0 0.711
2593 25 0 32 0 0 2 32 7 2 0.864
2594 25 0 33 1 1 1 33 7 1 0.804
2595 25 0 34 3 1 3 34 7 3 0.822
2596 25 0 35 2 1 0 32 7 1 1.08
2597 25 0 36 1 0 0 34 7 1 0.612
2598 25 0 37 0 0 3 33 7 0 0.509
2599 25 0 38 1 1 3 33 7 0 0.842
2600 25 0 39 3 1 1 33 7 1 1.295
2601 25 0 40 1 0 1 33 7 2 0.787
2602 25 0 41 0 1 2 41 7 0 0.873
2603 25 0 42 3 1 3 31 7 1 0.889
2604 25 0 43 3 1 2 42 7 3 0.748
2605 25 0 44 3 0 1 31 7 3 0.608
2606 25 0 45 3 0 2 34 7 3 0.761
2607 25 0 46 0 0 3 32 7 3 0.701
2608 25 0 47 0 0 2 31 7 1 0.855
2609 25 0 48 2 0 1 31 7 2 1.546
2610 25 0 49 3 1 1 36 7 3 0.69
2611 25 0 50 2 0 2 33 7 1 0.728
2612 25 0 51 1 0 2 32 7 1 0.561
2613 25 0 52 3 1 3 34 7 0 0.747
2614 25 0 53 3 0 0 36 7 3 0.563
2615 25 0 54 1 1 0 31 7 2 1.101
2616 25 0 55 1 0 1 32 7 2 0.536
2617 25 0 56 3 0 0 32 7 3 1.319
2618 25 0 57 2 1 0 31 7 3 0.839
2619 25 0 58 3 1 0 31 7 3 0.571
2620 25 0 59 1 1 3 31 7 1 0.87
2621 25 0 60 3 1 2 33 7 1 0.582
2622 25 0 61 3 1 1 31 7 2 0.916
2623 25 0 62 0 0 3 31 7 1 0.756
2624 25 0 63 2 0 2 32 7 1 1.1
2625 25 1 64 0 1 1 35 7 1 0.814
2626 25 1 65 1 1 0 31 7 1 0.739
2627 25 1 66 0 0 3 39 7 1 0.792
2628 25 1 67 2 1 3 37 7 1 0.894
2629 25 1 68 2 1 1 31 7 2 1.553
2630 25 1 69 3 1 0 31 7 2 1.144
2631 25 1 70 3 1 3 31 7 3 3.329
2632 25 1 71 0 1 2 33 7 0 0.921
2633 25 1 72 1 0 0 32 7 1 0.647
2634 25 1 73 3 0 3 35 7 3 0.447
2635 25 1 74 2 0 2 31 7 1 0.718
2636 25 1 75 1 0 0 31 7 1 0.471
2637 25 1 76 3 1 0 34 7 1 0.677
2638 25 1 77 0 0 1 31 7 2 0.927
2639 25 1 78 2 0 3 36 7 1 0.801
2640 25 1 79 1 1 2 32 7 1 0.711
2641 25 1 80 2 1 1 34 7 2 0.845
2642 25 1 81 3 1 2 32 7 0 0.814
2643 25 1 82 0 1 0 31 7 0 0.611
2644 25 1 83 0 0 1 34 7 0 0.892
2645 25 1 84 2 0 0 37 7 1 2.395
2646 25 1 85 2 1 0 33 7 0 0.92
2647 25 1 86 2 0 1 31 7 2 1.705
2648 25 1 87 3 0 2 35 7 3 0.475
2649 25 1 88 0 1 2 38 7 0 0.841
2650 25 1 89 2 0 2 32 7 1 0.746
2651 25 1 90 0 0 2 35 7 2 0.77
2652 25 1 91 2 0 1 31 7 2 0.569
2653 25 1 92 0 0 0 31 7 2 0.756
2654 25 1 93 3 0 3 34 7 3 0.555
2655 25 1 94 3 0 0 34 7 3 0.438
2656 25 1 95 2 0 3 32 7 2 1.781
2657 25 1 96 3 1 2 32 7 3 0.804
2659 26 0 0 2 1 2 31 7 0 0.766
2660 26 0 1 0 0 1 39 7 0 0.429
2661 26 0 2 0 1 1 35 7 0 0.627
2662 26 0 3 0 0 1 31 7 0 0.451
2663 26 0 4 2 0 2 39 7 1 0.628
2664 26 0 5 1 1 0 33 7 0 0.599
2665 26 0 6 0 1 0 31 7 1 1.163
2666 26 0 7 3 0 1 33 7 3 1.468
2667 26 0 8 2 1 0 31 7 0 0.733
2668 26 0 9 2 1 2 32 7 0 0.829
2669 26 0 10 3 0 2 33 7 0 0.681
2670 26 0 11 3 1 0 32 7 3 2.283
2671 26 0 12 1 1 1 32 7 0 0.639
2672 26 0 13 2 0 1 32 7 2 1.57
2673 26 0 14 1 0 3 37 7 1 0.544
2674 26 0 15 3 1 2 31 7 3 0.803
2675 26 0 16 0 0 3 31 7 1 0.684
2676 26 0 17 2 0 1 32 7 0 0.733
2677 26 0 18 0 0 0 36 7 0 0.525
2678 26 0 19 2 0 2 32 7 1 0.513
2679 26 0 20 3 0 3 32 7 3 0.505
2680 26 0 21 3 1 1 32 7 3 0.412
2681 26 0 22 3 0 1 31 7 3 0.371
2682 26 0 23 0 0 1 33 7 0 0.556
2683 26 0 24 1 1 3 38 7 1 0.862
2684 26 0 25 0 0 0 33 7 1 0.902
2685 26 0 26 0 1 1 32 7 2 1.664
2686 26 0 27 0 0 2 32 7 0 0.478
2687 26 0 28 1 0 3 31 7 1 0.515
2688 26 0 29 0 1 2 31 7 1 0.822
2689 26 0 30 1 0 1 32 7 1 1.458
2690 26 0 31 1 0 2 33 7 1 0.516
2691 26 0 32 1 1 1 33 7 1 0.5
2692 26 0 33 3 1 1 34 7 1 0.745
2693 26 0 34 2 1 2 31 7 1 0.632
2694 26 0 35 0 0 1 32 7 0 0.459
2695 26 0 36 3 1 1 38 7 3 0.513
2696 26 0 37 2 1 1 31 7 3 1.525
2697 26 0 38 0 1 2 32 7 0 0.552
2698 26 0 39 1 0 2 36 7 1 0.699
2699 26 0 40 0 1 2 32 7 0 0.888
2700 26 0 41 3 0 2 31 7 3 0.686
2701 26 0 42 0 1 2 33 7 0 0.46
2702 26 0 43 2 1 0 33 7 0 0.785
2703 26 0 44 1 1 0 32 7 0 0.703
2704 26 0 45 2 1 1 31 7 1 1.119
2705 26 0 46 0 1 2 31 7 0 0.513
2706 26 0 47 1 0 1 33 7 1 0.628
2707 26 0 48 3 0 2 31 7 3 0.708
2708 26 0 49 0 0 1 31 7 0 0.497
2709 26 0 50 1 0 1 31 7 1 0.502
2710 26 0 51 1 1 2 32 7 1 0.506
2711 26 0 52 0 0 3 34 7 1 0.653
2712 26 0 53 0 1 0 31 7 0 0.72
2713 26 0 54 0 0 0 32 7 0 0.332
2714 26 0 55 2 1 2 33 7 1 0.646
2715 26 0 56 2 1 0 34 7 1 0.409
2716 26 0 57 0 0 0 31 7 0 0.756
2717 26 0 58 0 1 3 32 7 0 0.478
2718 26 0 59 1 1 2 32 7 1 0.628
2719 26 0 60 2 1 0 37 7 1 0.483
2720 26 0 61 0 1 1 41 7 0 0.54
2721 26 0 62 0 0 2 31 7 0 0.511
2722 26 0 63 2 0 3 31 7 2 1.107
2723 26 1 64 1 1 1 44 7 1 0.704
2724 26 1 65 2 0 2 41 7 1 0.412
2725 26 1 66 1 0 0 35 7 1 1.079
2726 26 1 67 1 0 1 34 7 1 0.455
2727 26 1 68 1 1 0 34 7 1 0.909
2728 26 1 69 1 1 2 32 7 1 0.418
2729 26 1 70 2 1 3 35 7 1 0.713
2730 26 1 71 2 1 0 32 7 1 0.554
2731 26 1 72 0 0 3 31 7 1 0.527
2732 26 1 73 1 0 2 31 7 2 0.934
2733 26 1 74 0 0 1 31 7 0 0.814
2734 26 1 75 3 0 2 31 7 3 0.632
2735 26 1 76 1 1 3 31 7 3 0.951
2736 26 1 77 2 0 1 31 7 2 0.847
2737 26 1 78 2 0 3 31 7 2 0.599
2738 26 1 79 1 0 2 31 7 1 0.536
2739 26 1 80 1 0 1 31 7 1 0.426
2740 26 1 81 1 1 0 32 7 1 0.449
2741 26 1 82 2 1 3 36 7 0 0.92
2742 26 1 83 0 0 3 31 7 1 0.688
2743 26 1 84 2 0 3 31 7 1 1.553
2744 26 1 85 3 1 2 35 7 3 0.643
2745 26 1 86 0 0 3 33 7 1 0.915
2746 26 1 87 3 1 2 37 7 3 0.54
2747 26 1 88 1 1 2 33 7 1 0.639
2748 26 1 89 2 0 1 33 7 2 0.653
2749 26 1 90 2 0 2 32 7 1 0.665
2750 26 1 91 2 1 1 31 7 2 0.587
2751 26 1 92 3 1 1 32 7 3 0.54
2752 26 1 93 1 0 3 34 7 1 0.687
2753 26 1 94 1 1 1 32 7 1 0.62
2754 26 1 95 0 0 2 31 7 2 0.444
2755 26 1 96 1 0 1 34 7 1 0.47
2756 26 1 97 2 0 3 32 7 2 0.731
2757 26 1 98 1 0 2 31 7 1 0.759
2758 26 1 99 0 1 1 36 7 0 0.562
2759 26 1 100 1 0 3 31 7 1 0.484
2760 26 1 101 1 0 3 34 7 1 0.457
2761 26 1 102 3 1 2 36 7 3 0.639
2762 26 1 103 3 0 1 32 7 3 0.75
2763 26 1 104 0 1 2 32 7 0 0.505
2764 26 1 105 3 0 1 32 7 3 0.493
2765 26 1 106 1 1 2 32 7 1 0.929
2766 26 1 107 1 0 0 32 7 1 1.207
2767 26 1 108 3 0 1 33 7 3 0.498
2768 26 1 109 3 1 2 31 7 3 0.502
2769 26 1 110 2 0 2 31 7 1 0.666
2770 26 1 111 3 1 0 33 7 2 1.244
2771 26 1 112 0 0 0 31 7 1 0.585
2772 27 0 0 3 1 0 31 7 1 1.949
2773 26 1 113 3 0 0 32 7 3 0.574
2774 26 1 114 0 1 3 35 7 3 0.704
2775 27 0 1 0 1 3 31 7 2 2.961
2776 26 1 115 2 0 0 31 7 1 0.704
2777 26 1 116 1 1 2 31 7 1 0.704
2778 27 0 2 0 0 2 33 7 1 1.944
2779 26 1 117 1 1 2 34 7 1 0.589
2780 26 1 118 3 0 3 34 7 3 0.542
2781 27 0 3 2 1 1 32 7 0 2.805
2782 26 1 119 3 1 0 34 7 1 0.881
2783 27 0 4 1 1 3 31 7 1 2.226
2784 26 1 120 2 1 3 31 7 1 0.795
2785 26 1 121 1 1 1 32 7 2 0.889
2786 27 0 5 0 1 0 32 7 1 2.352
2787 26 1 122 2 1 2 36 7 1 0.578
2788 27 0 6 2 1 3 33 7 0 0.918
2789 26 1 123 1 0 0 32 7 2 0.776
2790 26 1 124 2 0 1 31 7 2 0.662
2791 27 0 7 0 1 0 38 7 1 2.502
2792 26 1 125 3 1 2 32 7 3 0.612
2793 26 1 126 3 1 3 31 7 3 0.485
2794 27 0 8 1 1 1 34 7 2 2.687
2795 26 1 127 0 1 3 31 7 3 0.506
2796 27 0 9 1 1 3 33 7 1 1.392
2797 27 0 10 0 0 2 33 7 0 0.676
2798 27 0 11 3 0 1 32 7 0 0.666
2799 27 0 12 2 1 1 34 7 1 1.404
2800 27 0 13 2 0 0 31 7 1 0.827
2801 26 2 128 0 1 0 35 7 0 0.968
2802 27 0 14 1 1 1 31 7 1 1.191
2803 26 2 129 2 0 3 31 7 1 0.587
2804 27 0 15 0 0 3 31 7 1 0.819
2805 26 2 130 3 0 3 32 7 3 0.592
2806 27 0 16 0 0 1 31 7 0 1.671
2807 26 2 131 3 0 1 33 7 2 0.817
2808 26 2 132 3 0 0 31 7 1 0.797
2809 27 0 17 3 0 2 31 7 3 1.057
2810 27 0 18 2 0 1 34 7 2 0.817
2811 26 2 133 0 0 3 32 7 0 1.371
2812 27 0 19 2 0 3 31 7 2 0.506
2813 26 2 134 2 0 1 34 7 1 0.8
2814 27 0 20 2 0 2 31 7 2 0.646
2815 26 2 135 3 0 1 32 7 3 0.541
2816 27 0 21 0 1 1 32 7 1 0.829
2817 26 2 136 2 1 0 31 7 1 1.488
2818 27 0 22 1 0 1 34 7 1 0.553
2819 26 2 137 1 1 1 32 7 2 0.948
2820 27 0 23 3 1 0 31 7 2 0.963
2821 26 2 138 3 0 3 32 7 3 0.517
2822 27 0 24 0 0 2 40 7 0 0.923
2823 26 2 139 1 0 0 32 7 1 0.585
2824 27 0 25 2 1 0 31 7 2 1.112
2825 26 2 140 2 0 2 33 7 2 0.762
2826 26 2 141 1 0 3 31 7 1 0.597
2827 27 0 26 0 1 3 32 7 0 1.454
2828 26 2 142 0 0 3 34 7 1 0.486
2829 27 0 27 3 1 3 33 7 3 0.936
2830 26 2 143 1 0 0 31 7 1 0.43
2831 27 0 28 3 1 3 35 7 3 0.741
2832 26 2 144 3 1 0 35 7 2 1.093
2833 27 0 29 0 1 1 31 7 1 0.928
2834 26 2 145 1 0 2 34 7 1 0.52
2835 27 0 30 3 1 3 32 7 3 0.841
2836 26 2 146 2 1 0 31 7 1 0.779
2837 27 0 31 1 0 2 33 7 1 0.873
2838 26 2 147 3 0 3 32 7 3 0.457
2839 27 0 32 2 0 0 33 7 2 0.864
2840 26 2 148 2 1 2 33 7 1 0.735
2841 26 2 149 1 1 3 34 7 1 0.509
2842 27 0 33 2 1 2 31 7 1 1.103
2843 26 2 150 1 0 1 41 7 2 0.817
2844 27 0 34 3 0 0 31 7 3 1.441
2845 26 2 151 1 0 0 31 7 1 0.446
2846 27 0 35 1 1 2 33 7 3 0.579
2847 27 0 36 3 1 1 32 7 3 0.745
2848 26 2 152 0 0 2 34 7 0 1.556
2849 27 0 37 1 0 0 34 7 1 0.828
2850 26 2 153 0 1 0 31 7 0 2.002
2851 27 0 38 2 1 0 38 7 1 0.845
2852 26 2 154 1 1 3 33 7 1 0.529
2853 27 0 39 3 1 2 33 7 2 0.48
2854 26 2 155 0 0 2 32 7 1 0.516
2855 27 0 40 1 1 1 31 7 1 0.905
2856 26 2 156 2 0 3 31 7 2 0.796
2857 27 0 41 1 1 0 36 7 1 1.079
2858 26 2 157 1 1 0 36 7 1 0.533
2859 27 0 42 0 1 2 32 7 0 0.895
2860 26 2 158 3 1 2 35 7 3 0.535
2861 26 2 159 3 0 0 31 7 3 0.394
2862 27 0 43 0 1 2 35 7 2 1.221
2863 27 0 44 2 0 1 32 7 0 0.419
2864 26 2 160 2 1 2 32 7 3 1.298
2865 27 0 45 2 0 1 32 7 1 0.349
2866 26 2 161 1 0 0 31 7 1 0.621
2867 27 0 46 2 0 1 31 7 2 0.298
2868 26 2 162 2 1 1 33 7 2 0.717
2869 27 0 47 2 1 0 35 7 3 0.526
2870 26 2 163 0 0 3 34 7 1 0.553
2871 27 0 48 0 1 0 31 7 1 0.925
2872 26 2 164 0 1 3 34 7 3 0.703
2873 27 0 49 1 0 2 31 7 1 0.518
2874 26 2 165 2 1 1 37 7 2 0.928
2875 27 0 50 3 0 2 39 7 3 0.969
2876 26 2 166 3 1 3 31 7 1 0.725
2877 27 0 51 0 1 1 43 7 1 1.244
2878 26 2 167 1 1 0 31 7 1 0.532
2879 26 2 168 3 1 3 31 7 3 0.424
2880 27 0 52 1 1 0 34 7 1 0.69
2881 26 2 169 1 1 2 33 7 1 0.575
2882 27 0 53 3 1 2 31 7 1 0.983
2883 26 2 170 2 0 1 36 7 2 0.528
2884 27 0 54 1 1 1 36 7 1 0.622
2885 26 2 171 3 1 1 33 7 3 0.403
2886 27 0 55 0 1 2 36 7 0 0.71
2887 26 2 172 2 0 2 33 7 2 0.619
2888 27 0 56 1 0 3 31 7 2 1.251
2889 26 2 173 2 0 0 31 7 2 0.859
2890 27 0 57 1 1 3 31 7 2 0.671
2891 26 2 174 2 0 0 31 7 1 0.45
2892 27 0 58 1 1 0 31 7 1 1.233
2893 26 2 175 3 1 0 35 7 3 0.636
2894 26 2 176 1 0 3 38 7 1 0.619
2895 27 0 59 3 0 0 33 7 3 1.115
2896 26 2 177 1 0 1 31 7 2 0.763
2897 27 0 60 1 1 2 34 7 1 1.049
2898 26 2 178 3 1 1 34 7 2 0.762
2899 27 0 61 1 1 3 31 7 2 1.242
2900 26 2 179 0 1 0 31 7 1 1.144
2901 27 0 62 3 0 3 35 7 3 1.119
2902 26 2 180 3 0 2 34 7 3 0.521
2903 27 0 63 2 1 1 31 7 2 1.517
2904 26 2 181 2 1 1 31 7 2 0.7
2905 26 2 182 2 1 3 34 7 1 0.585
2906 26 2 183 1 1 0 37 7 2 0.718
2907 26 2 184 1 0 2 43 7 1 0.494
2908 26 2 185 3 1 0 33 7 3 0.499
2909 27 1 64 3 1 3 35 7 3 0.821
2910 26 2 186 0 1 0 32 7 1 0.695
2911 27 1 65 0 1 3 31 7 0 0.741
2912 26 2 187 2 1 2 35 7 1 0.504
2913 27 1 66 3 0 2 31 7 2 0.785
2914 26 2 188 2 0 3 31 7 2 0.992
2915 27 1 67 0 0 2 34 7 2 0.75
2916 26 2 189 1 1 3 34 7 1 0.706
2917 27 1 68 0 1 0 33 7 0 1.349
2918 26 2 190 2 1 3 31 7 2 0.639
2919 27 1 69 3 1 1 31 7 2 0.923
2920 26 2 191 2 0 1 34 7 2 0.462
2921 27 1 70 3 0 3 38 7 3 1.075
2922 27 1 71 1 0 2 34 7 1 0.691
2923 27 1 72 1 1 0 32 7 0 0.768
2924 26 3 192 0 1 2 35 7 0 0.644
2925 27 1 73 2 0 3 31 7 2 0.75
2926 26 3 193 3 0 0 37 7 3 0.467
2927 27 1 74 1 1 2 31 7 2 0.769
2928 26 3 194 1 0 3 36 7 1 0.617
2929 26 3 195 2 0 3 40 7 1 0.393
2930 27 1 75 0 1 2 31 7 0 0.807
2931 26 3 196 3 0 0 31 7 3 0.533
2932 27 1 76 3 1 2 33 7 3 0.863
2933 26 3 197 3 0 1 31 7 1 1.432
2934 27 1 77 3 0 3 35 7 2 1.079
2935 26 3 198 3 1 3 34 7 3 0.495
2936 27 1 78 1 0 1 31 7 3 0.898
2937 26 3 199 3 0 0 31 7 3 0.387
2938 27 1 79 2 1 3 43 7 2 0.58
2939 26 3 200 2 1 1 33 7 1 0.763
2940 27 1 80 3 1 1 31 7 1 0.902
2941 26 3 201 3 1 1 31 7 3 0.506
2942 27 1 81 3 1 1 33 7 3 0.671
2943 26 3 202 1 1 3 34 7 1 0.574
2944 27 1 82 1 0 3 31 7 2 0.957
2945 26 3 203 0 1 0 31 7 0 0.831
2946 27 1 83 3 0 1 31 7 3 0.852
2947 26 3 204 1 1 2 33 7 1 0.679
2948 27 1 84 3 0 2 31 7 3 0.572
2949 26 3 205 3 1 0 33 7 3 0.469
2950 27 1 85 3 0 3 31 7 3 0.613
2951 26 3 206 2 1 0 32 7 2 0.858
2952 27 1 86 1 0 3 31 7 1 0.854
2953 26 3 207 1 1 2 31 7 3 0.642
2954 27 1 87 1 1 0 31 7 1 1.093
2955 26 3 208 1 1 0 31 7 1 0.485
2956 26 3 209 2 1 1 32 7 2 0.537
2957 27 1 88 2 1 2 32 7 1 1.1
2958 26 3 210 3 1 3 35 7 3 0.364
2959 27 1 89 0 0 0 34 7 1 0.774
2960 26 3 211 1 1 1 32 7 1 0.517
2961 27 1 90 1 0 0 31 7 2 0.852
2962 26 3 212 0 1 2 34 7 3 0.584
2963 27 1 91 1 0 3 36 7 2 1.031
2964 26 3 213 0 0 1 32 7 0 0.51
2965 27 1 92 1 1 3 32 7 1 0.284
2966 26 3 214 3 0 1 31 7 3 0.482
2967 27 1 93 2 1 3 40 7 2 0.665
2968 26 3 215 0 1 3 34 7 2 0.919
2969 27 1 94 2 0 0 36 7 1 0.503
2970 26 3 216 1 0 1 32 7 1 0.463
2971 27 1 95 1 1 2 32 7 2 0.431
2972 26 3 217 3 1 2 31 7 3 0.42
2973 27 1 96 3 0 3 31 7 2 0.657
2974 26 3 218 0 1 3 32 7 0 0.587
2975 27 1 97 0 0 1 31 7 3 0.523
2976 26 3 219 0 1 1 33 7 0 0.396
2977 27 1 98 2 0 3 41 7 2 0.946
2978 26 3 220 1 0 3 33 7 1 0.532
2979 27 1 99 2 0 2 32 7 2 0.519
2980 26 3 221 0 0 1 33 7 0 0.696
2981 27 1 100 2 0 2 31 7 2 0.426
2982 26 3 222 1 0 3 31 7 1 0.421
2983 27 1 101 1 0 3 32 7 2 0.393
2984 26 3 223 0 1 3 35 7 0 0.748
2985 27 1 102 2 0 0 32 7 1 0.732
2986 26 3 224 3 0 1 31 7 3 0.456
2987 27 1 103 0 0 3 34 7 3 0.3
2988 26 3 225 3 0 2 35 7 3 0.333
2989 27 1 104 1 1 2 31 7 0 0.491
2990 26 3 226 0 0 2 32 7 0 0.552
2991 27 1 105 1 0 0 32 7 2 0.548
2992 26 3 227 2 0 3 38 7 1 0.539
2993 27 1 106 2 1 1 31 7 1 0.834
2994 26 3 228 0 1 1 31 7 0 0.561
2995 27 1 107 1 1 3 37 7 2 0.598
2996 26 3 229 0 1 0 31 7 0 0.579
2997 27 1 108 1 1 1 32 7 1 0.682
2998 26 3 230 1 0 0 32 7 0 0.725
2999 27 1 109 2 1 2 31 7 2 0.72
3000 26 3 231 0 1 0 33 7 0 0.436
3001 27 1 110 2 0 3 31 7 2 0.876
3002 26 3 232 3 0 0 31 7 3 0.459
3003 27 1 111 2 0 3 31 7 2 0.459
3004 26 3 233 2 0 2 31 7 1 0.72
3005 27 1 112 2 0 1 34 7 2 0.505
3006 26 3 234 2 1 3 36 7 2 0.8
3007 27 1 113 0 0 0 32 7 1 0.877
3008 26 3 235 2 0 0 31 7 1 0.457
3009 27 1 114 1 0 1 31 7 2 0.503
3010 26 3 236 2 1 3 31 7 2 0.563
3011 27 1 115 2 1 2 32 7 2 0.639
3012 26 3 237 2 0 0 32 7 2 0.405
3013 27 1 116 1 0 3 31 7 2 0.374
3014 26 3 238 2 1 1 34 7 2 0.412
3015 27 1 117 0 1 0 34 7 2 0.674
3016 26 3 239 2 0 0 35 7 2 0.499
3017 27 1 118 1 0 3 39 7 1 0.412
3018 26 3 240 0 0 0 36 7 0 0.504
3019 27 1 119 1 0 0 34 7 1 0.587
3020 26 3 241 1 0 0 31 7 1 0.476
3021 27 1 120 2 0 0 31 7 1 0.251
3022 26 3 242 2 0 1 32 7 2 0.753
3023 27 1 121 2 1 2 31 7 3 1.068
3024 26 3 243 1 1 3 32 7 2 0.556
3025 27 1 122 1 1 3 35 7 1 0.36
3026 26 3 244 0 1 1 36 7 1 0.61
3027 26 3 245 2 1 3 31 7 2 0.437
3028 27 1 123 3 1 1 31 7 1 2.553
3029 26 3 246 0 0 0 31 7 0 0.54
3030 27 1 124 0 0 0 32 7 0 0.68
3031 26 3 247 0 0 0 37 7 0 0.318
3032 27 1 125 2 1 0 33 7 1 0.533
3033 26 3 248 3 0 2 32 7 3 0.441
3034 27 1 126 3 0 1 36 7 2 0.82
3035 26 3 249 1 1 1 31 7 0 0.496
3036 27 1 127 1 1 2 31 7 1 0.793
3037 26 3 250 0 0 0 34 7 0 0.408
3038 26 3 251 0 1 2 33 7 0 0.479
3039 27 2 128 1 1 3 31 7 1 0.511
3040 26 3 252 1 1 3 33 7 0 0.757
3041 27 2 129 3 0 2 35 7 3 0.769
3042 26 3 253 1 1 0 31 7 0 0.611
3043 27 2 130 1 1 1 31 7 1 0.908
3044 26 3 254 1 0 1 40 7 0 1.175
3045 27 2 131 1 0 3 33 7 1 0.642
3046 26 3 255 2 0 3 35 7 2 1.911
3047 27 2 132 2 0 0 33 7 2 1.049
3048 27 2 133 0 1 2 31 7 2 0.945
3049 27 2 134 0 0 3 34 7 2 0.489
3050 26 4 256 0 1 3 32 7 3 0.657
3051 26 4 257 1 0 0 32 7 1 0.627
3052 27 2 135 3 1 2 40 7 3 1.145
3053 26 4 258 2 0 2 31 7 2 0.419
3054 27 2 136 2 0 2 31 7 2 0.847
3055 26 4 259 3 0 3 36 7 3 0.33
3056 27 2 137 0 1 3 31 7 2 1.223
3057 26 4 260 3 1 3 31 7 3 0.451
3058 27 2 138 1 0 1 32 7 1 0.837
3059 26 4 261 1 1 3 31 7 1 0.569
3060 27 2 139 3 0 0 39 7 1 0.853
3061 26 4 262 2 1 3 41 7 1 0.475
3062 26 4 263 3 0 3 32 7 3 0.547
3063 27 2 140 2 1 1 32 7 2 0.864
3064 26 4 264 3 0 3 31 7 3 0.374
3065 27 2 141 3 1 2 31 7 3 0.663
3066 26 4 265 2 0 1 31 7 3 0.751
3067 27 2 142 2 1 1 36 7 3 0.854
3068 26 4 266 2 1 0 36 7 3 0.765
3069 27 2 143 2 0 0 32 7 2 0.641
3070 26 4 267 1 1 3 31 7 1 0.62
3071 27 2 144 2 1 0 34 7 1 0.832
3072 26 4 268 1 1 1 31 7 1 1.164
3073 27 2 145 2 1 2 33 7 2 0.692
3074 26 4 269 0 1 3 37 7 1 0.44
3075 27 2 146 0 1 0 37 7 1 0.729
3076 26 4 270 2 1 2 32 7 2 0.514
3077 27 2 147 2 1 0 36 7 2 1.057
3078 26 4 271 0 0 1 32 7 0 0.678
3079 27 2 148 2 1 0 32 7 1 0.777
3080 26 4 272 3 1 2 32 7 3 0.484
3081 27 2 149 2 0 3 35 7 2 0.743
3082 26 4 273 0 0 2 31 7 0 0.521
3083 27 2 150 1 0 2 34 7 1 0.755
3084 26 4 274 0 1 1 32 7 0 0.444
3085 27 2 151 0 0 3 31 7 1 0.582
3086 26 4 275 0 1 2 35 7 0 0.435
3087 26 4 276 3 1 3 32 7 3 0.473
3088 27 2 152 1 0 2 31 7 1 1.051
3089 26 4 277 3 0 0 39 7 3 0.495
3090 27 2 153 3 0 3 32 7 3 0.867
3091 26 4 278 3 0 2 31 7 3 0.387
3092 27 2 154 3 1 0 33 7 3 0.73
3093 26 4 279 1 1 0 32 7 1 0.923
3094 27 2 155 1 1 1 31 7 3 1.878
3095 26 4 280 3 1 3 32 7 3 0.416
3096 27 2 156 3 0 2 32 7 3 0.709
3097 26 4 281 3 1 0 35 7 3 0.391
3098 27 2 157 0 1 3 31 7 3 0.754
3099 26 4 282 0 0 0 31 7 0 0.639
3100 26 4 283 3 1 3 32 7 3 0.398
3101 27 2 158 3 0 0 31 7 2 0.552
3102 26 4 284 2 0 0 33 7 2 0.519
3103 27 2 159 0 1 2 31 7 0 0.886
3104 26 4 285 1 0 2 33 7 1 0.586
3105 27 2 160 3 0 1 37 7 1 1.372
3106 26 4 286 3 0 2 31 7 3 0.331
3107 26 4 287 0 0 2 31 7 0 0.454
3108 27 2 161 2 1 3 34 7 2 1.341
3109 27 2 162 1 1 2 31 7 1 0.746
3110 26 4 288 2 0 0 33 7 2 1.036
3111 27 2 163 3 0 2 37 7 3 0.862
3112 26 4 289 2 0 0 37 7 0 0.732
3113 26 4 290 3 0 0 32 7 3 0.458
3114 27 2 164 1 1 3 31 7 1 0.725
3115 26 4 291 3 1 0 31 7 0 0.672
3116 27 2 165 2 0 2 37 7 2 0.762
3117 26 4 292 1 1 1 31 7 1 0.865
3118 27 2 166 0 0 0 31 7 2 0.741
3119 26 4 293 3 1 0 35 7 3 0.473
3120 27 2 167 3 0 3 31 7 3 1.036
3121 26 4 294 0 1 1 33 7 0 0.59
3122 27 2 168 1 1 1 33 7 2 1.045
3123 26 4 295 2 0 0 32 7 2 0.687
3124 27 2 169 2 1 3 37 7 3 0.705
3125 26 4 296 2 0 2 34 7 2 0.828
3126 27 2 170 3 0 1 31 7 1 0.866
3127 26 4 297 2 1 1 32 7 2 0.469
3128 27 2 171 0 0 3 31 7 0 0.533
3129 26 4 298 3 1 1 32 7 3 0.474
3130 27 2 172 2 1 3 33 7 0 1.28
3131 26 4 299 3 1 2 32 7 3 0.431
3132 27 2 173 1 0 0 31 7 2 0.412
3133 26 4 300 3 1 1 34 7 3 0.294
3134 27 2 174 1 1 0 31 7 1 0.382
3135 26 4 301 3 0 2 33 7 3 0.353
3136 27 2 175 0 0 2 35 7 0 0.935
3137 26 4 302 2 1 3 33 7 2 0.842
