datID sessionID block trial target cue location forePeriod targetTime resp rt
1 4 0 0 3 1 1 31 7 0 0.467
2 4 0 1 0 0 3 31 7 0 0.403
3 4 0 2 3 1 2 31 7 3 0.539
4 4 0 3 3 1 3 34 7 3 0.422
5 4 0 4 2 1 2 33 7 0 0.669
6 4 0 5 1 1 2 32 7 1 0.382
7 4 0 6 2 1 3 35 7 2 0.518
8 4 0 7 2 0 0 31 7 0 0.409
9 4 0 8 0 1 0 31 7 0 0.42
10 4 0 9 2 1 3 35 7 2 0.402
11 4 0 10 0 1 3 32 7 0 0.378
12 4 0 11 1 1 1 33 7 0 0.811
13 4 0 12 2 1 1 31 7 0 0.447
14 4 0 13 1 0 2 31 7 1 0.335
15 4 0 14 2 1 3 32 7 2 0.394
16 4 0 15 2 0 1 31 7 2 0.386
17 4 0 16 1 1 0 35 7 0 0.546
18 4 0 17 2 0 1 32 7 2 0.368
19 4 0 18 0 1 3 32 7 0 0.689
20 4 0 19 2 1 3 32 7 2 0.398
21 4 0 20 2 0 3 32 7 2 0.67
22 4 0 21 2 1 2 37 7 1 0.804
23 4 0 22 2 1 3 32 7 2 0.353
24 4 0 23 2 0 1 32 7 2 0.41
25 4 0 24 2 1 1 31 7 2 0.426
26 4 0 25 0 1 1 31 7 0 0.376
27 4 0 26 1 0 0 31 7 1 0.385
28 4 0 27 0 1 1 32 7 2 0.713
29 4 0 28 0 0 0 31 7 0 0.306
30 4 0 29 3 1 0 33 7 0 0.429
31 4 0 30 2 0 2 31 7 2 0.751
32 4 0 31 0 1 1 31 7 0 0.338
33 4 0 32 1 1 1 32 7 1 0.379
34 4 0 33 3 0 0 32 7 1 1.284
35 4 0 34 0 0 3 36 7 0 0.392
36 4 0 35 3 1 3 32 7 0 0.448
37 4 0 36 2 0 3 32 7 2 1.29
38 4 0 37 0 1 0 32 7 0 0.498
39 4 0 38 0 1 3 32 7 2 0.918
40 4 0 39 3 0 0 31 7 1 0.679
41 4 0 40 2 0 2 32 7 1 0.456
42 4 0 41 3 1 2 31 7 0 0.458
43 4 0 42 0 1 0 31 7 0 0.403
44 4 0 43 1 1 1 40 7 1 0.322
45 4 0 44 1 0 0 31 7 0 0.429
46 4 0 45 3 0 3 31 7 3 0.398
47 4 0 46 2 0 1 36 7 2 0.342
48 4 0 47 3 1 0 31 7 1 0.656
49 4 0 48 3 0 1 31 7 3 0.41
50 4 0 49 1 0 0 31 7 1 0.311
51 4 0 50 1 0 3 31 7 1 0.362
52 4 0 51 0 0 2 32 7 0 0.304
53 4 0 52 0 0 2 31 7 0 0.427
54 4 0 53 0 0 0 31 7 0 0.41
55 4 0 54 1 0 2 40 7 1 0.313
56 4 0 55 0 0 3 31 7 2 0.684
57 4 0 56 0 0 1 37 7 0 0.317
58 4 0 57 3 1 3 32 7 1 0.536
59 4 0 58 1 0 3 33 7 1 0.286
60 4 0 59 0 0 2 40 7 0 0.536
61 4 0 60 3 1 0 33 7 1 0.419
62 4 0 61 2 0 0 39 7 2 0.438
63 4 0 62 2 0 1 31 7 2 0.491
64 4 0 63 3 0 3 32 7 3 0.479
65 4 1 64 2 0 3 33 7 2 0.417
66 4 1 65 1 1 3 32 7 1 0.384
67 4 1 66 1 1 2 32 7 1 0.505
68 4 1 67 2 1 2 37 7 2 0.541
69 4 1 68 1 0 3 34 7 1 0.36
70 4 1 69 3 0 2 31 7 3 0.585
71 4 1 70 0 0 0 31 7 1 0.585
72 4 1 71 0 0 0 32 7 1 0.446
73 4 1 72 3 1 0 31 7 1 0.487
74 4 1 73 2 1 2 31 7 0 0.775
75 4 1 74 0 0 0 40 7 0 0.858
76 4 1 75 2 0 1 37 7 2 0.578
77 4 1 76 0 1 2 33 7 0 0.411
78 4 1 77 2 0 2 31 7 2 0.419
79 4 1 78 1 1 2 31 7 1 0.658
80 4 1 79 3 0 3 37 7 3 0.369
81 4 1 80 3 0 3 33 7 3 0.409
82 4 1 81 2 1 1 32 7 2 0.769
83 4 1 82 0 1 1 33 7 0 0.411
84 4 1 83 2 1 1 35 7 2 0.571
85 4 1 84 1 0 1 35 7 1 0.364
86 4 1 85 3 0 2 34 7 1 0.422
87 4 1 86 1 0 2 31 7 1 0.256
88 4 1 87 0 0 2 31 7 1 0.581
89 4 1 88 1 1 0 33 7 2 1.586
90 4 1 89 1 1 3 31 7 1 0.45
91 4 1 90 2 0 0 32 7 2 0.352
92 4 1 91 3 1 1 36 7 1 0.465
93 4 1 92 3 0 2 31 7 3 0.387
94 4 1 93 1 0 0 31 7 1 0.371
95 4 1 94 0 0 0 31 7 0 0.275
96 4 1 95 2 0 3 32 7 2 0.272
97 4 1 96 0 0 1 31 7 1 0.276
98 4 1 97 3 0 2 34 7 3 0.524
99 4 1 98 0 0 2 34 7 0 0.367
100 4 1 99 2 1 0 37 7 2 0.84
101 4 1 100 3 1 1 31 7 0 0.464
102 4 1 101 0 0 3 34 7 0 0.242
103 4 1 102 2 1 1 32 7 2 0.727
104 4 1 103 2 1 3 35 7 0 0.411
105 4 1 104 1 0 1 33 7 0 0.462
106 4 1 105 2 1 3 31 7 3 0.848
107 4 1 106 2 1 3 31 7 2 0.355
108 4 1 107 3 0 1 31 7 3 0.437
109 4 1 108 3 1 1 33 7 0 0.427
110 4 1 109 0 1 1 31 7 0 0.421
111 4 1 110 0 1 3 31 7 0 0.812
112 4 1 111 1 1 3 31 7 1 0.437
113 4 1 112 3 1 3 32 7 3 0.379
114 4 1 113 1 0 0 32 7 0 0.539
115 4 1 114 1 1 2 34 7 1 0.57
116 4 1 115 3 1 0 31 7 0 0.443
117 4 1 116 2 1 3 31 7 2 0.428
118 4 1 117 2 0 1 31 7 1 0.954
119 4 1 118 1 0 3 32 7 1 0.338
120 4 1 119 2 0 3 32 7 1 0.275
121 4 1 120 3 1 3 32 7 3 0.379
122 4 1 121 3 0 1 32 7 0 0.364
123 4 1 122 1 1 1 37 7 1 0.681
124 4 1 123 3 1 2 31 7 3 0.447
125 4 1 124 3 0 3 33 7 3 0.445
126 4 1 125 2 0 0 31 7 2 0.491
127 4 1 126 3 1 2 31 7 3 0.591
128 4 1 127 1 1 2 32 7 3 0.576
129 4 2 128 3 0 1 42 7 3 0.44
130 4 2 129 0 1 0 33 7 1 0.558
131 4 2 130 3 1 0 35 7 3 0.476
132 4 2 131 2 1 0 31 7 1 0.801
133 4 2 132 2 0 0 31 7 0 0.446
134 4 2 133 3 0 2 32 7 3 0.432
135 4 2 134 3 0 0 33 7 3 0.654
136 4 2 135 2 0 3 32 7 2 0.508
137 4 2 136 1 1 1 32 7 1 0.536
138 4 2 137 1 0 3 32 7 1 0.299
139 4 2 138 0 0 2 35 7 0 0.316
140 4 2 139 0 1 3 32 7 2 0.631
141 4 2 140 2 0 2 32 7 2 0.371
142 4 2 141 1 0 0 35 7 1 0.276
143 4 2 142 2 0 0 31 7 2 0.616
144 4 2 143 3 1 1 32 7 1 0.544
145 4 2 144 0 1 3 38 7 2 0.574
146 4 2 145 0 0 3 36 7 1 0.42
147 4 2 146 1 1 2 32 7 1 0.342
148 4 2 147 1 1 1 31 7 1 0.384
149 4 2 148 2 0 3 36 7 2 0.473
150 4 2 149 1 1 3 31 7 1 0.374
151 4 2 150 2 1 2 36 7 2 0.462
152 4 2 151 1 0 2 32 7 1 0.548
153 4 2 152 3 1 0 33 7 1 0.573
154 4 2 153 2 0 3 32 7 1 0.41
155 4 2 154 1 1 1 34 7 2 0.443
156 4 2 155 3 1 3 31 7 3 0.477
157 4 2 156 2 0 2 31 7 2 0.697
158 4 2 157 2 0 2 31 7 2 0.319
159 4 2 158 3 1 2 33 7 3 0.465
160 4 2 159 3 1 3 31 7 3 0.439
161 4 2 160 2 0 2 31 7 2 0.597
162 4 2 161 2 1 1 31 7 1 0.662
163 4 2 162 3 1 1 32 7 1 0.528
164 4 2 163 1 1 2 31 7 1 0.399
165 4 2 164 0 1 0 31 7 1 0.623
166 4 2 165 2 0 0 31 7 2 0.387
167 4 2 166 3 1 0 31 7 2 0.504
168 4 2 167 2 0 1 31 7 2 0.4
169 4 2 168 3 1 1 32 7 3 0.488
170 4 2 169 3 0 2 35 7 3 0.373
171 4 2 170 3 0 2 33 7 3 0.349
172 4 2 171 0 1 2 31 7 1 0.647
173 4 2 172 1 1 2 33 7 1 0.306
174 4 2 173 0 0 1 32 7 0 0.333
175 4 2 174 1 0 2 32 7 1 0.326
176 4 2 175 1 1 1 31 7 3 0.744
177 4 2 176 1 0 3 32 7 1 0.327
178 4 2 177 3 0 3 36 7 3 0.402
179 4 2 178 1 0 3 31 7 1 0.25
180 4 2 179 0 1 2 31 7 0 0.343
181 4 2 180 1 0 0 32 7 1 0.393
182 4 2 181 2 1 1 35 7 2 0.312
183 4 2 182 1 1 0 31 7 3 0.659
184 4 2 183 1 1 0 31 7 2 0.485
185 4 2 184 3 1 2 31 7 3 0.389
186 4 2 185 0 0 0 31 7 0 0.309
187 4 2 186 0 1 2 31 7 2 0.833
188 4 2 187 0 0 1 32 7 0 0.301
189 4 2 188 3 0 3 31 7 3 0.441
190 4 2 189 3 0 3 33 7 3 0.68
191 4 2 190 0 0 3 31 7 0 0.397
192 4 2 191 3 1 2 31 7 3 0.534
193 4 3 192 0 0 3 32 7 0 0.418
194 4 3 193 3 1 1 32 7 3 0.401
195 4 3 194 1 0 1 31 7 1 0.241
196 4 3 195 0 0 1 33 7 0 0.311
197 4 3 196 2 0 0 32 7 2 0.426
198 4 3 197 0 0 1 31 7 0 0.312
199 4 3 198 3 1 0 45 7 3 0.444
200 4 3 199 0 1 2 32 7 0 0.298
201 4 3 200 3 1 2 37 7 3 0.334
202 4 3 201 0 1 1 37 7 0 0.744
203 4 3 202 3 1 1 33 7 3 0.347
204 4 3 203 0 0 1 31 7 0 0.277
205 4 3 204 0 0 2 34 7 0 0.242
206 4 3 205 2 1 1 32 7 2 0.447
207 4 3 206 1 1 0 31 7 2 0.357
208 4 3 207 2 1 0 34 7 2 0.458
209 4 3 208 2 1 3 31 7 2 0.304
210 4 3 209 1 0 0 32 7 1 0.347
211 4 3 210 1 0 0 32 7 1 0.381
212 4 3 211 3 1 2 31 7 0 0.462
213 4 3 212 1 0 3 31 7 1 0.335
214 4 3 213 0 0 1 37 7 0 0.305
215 4 3 214 2 1 0 32 7 2 0.46
216 4 3 215 2 0 2 31 7 2 0.33
217 4 3 216 3 0 0 31 7 3 0.525
218 4 3 217 2 0 1 32 7 1 0.216
219 4 3 218 1 1 1 34 7 2 0.426
220 4 3 219 3 0 3 34 7 3 0.44
221 4 3 220 2 0 1 31 7 2 0.414
222 4 3 221 1 1 3 32 7 1 0.422
223 4 3 222 3 1 0 33 7 3 0.477
224 4 3 223 1 0 3 31 7 1 0.338
225 4 3 224 2 1 0 31 7 2 0.452
226 4 3 225 1 0 1 33 7 1 0.297
227 4 3 226 3 0 2 35 7 3 0.645
228 4 3 227 1 0 1 31 7 1 0.276
229 4 3 228 0 0 1 36 7 0 0.368
230 4 3 229 2 1 0 32 7 2 0.497
231 4 3 230 2 1 0 32 7 2 0.422
232 4 3 231 2 1 2 31 7 0 0.893
233 4 3 232 1 0 2 31 7 1 0.294
234 4 3 233 0 1 1 33 7 0 0.377
235 4 3 234 0 1 3 31 7 0 0.369
236 4 3 235 1 1 0 31 7 2 0.618
237 4 3 236 0 1 1 36 7 0 0.501
238 4 3 237 1 0 1 32 7 1 0.537
239 4 3 238 2 1 2 31 7 2 0.524
240 4 3 239 2 0 0 31 7 2 0.487
241 4 3 240 1 1 2 31 7 1 0.716
242 4 3 241 1 1 0 31 7 1 0.329
243 4 3 242 1 1 2 31 7 1 0.347
244 4 3 243 1 0 2 34 7 1 0.244
245 4 3 244 0 1 3 32 7 0 0.393
246 4 3 245 0 1 2 31 7 1 0.641
247 4 3 246 1 0 3 32 7 1 0.34
248 4 3 247 1 1 0 35 7 1 0.358
249 4 3 248 1 0 2 43 7 1 0.423
250 4 3 249 1 0 2 32 7 1 0.262
251 4 3 250 0 0 3 31 7 0 0.363
252 4 3 251 1 0 1 34 7 1 0.332
253 4 3 252 3 1 3 31 7 1 0.471
254 4 3 253 3 1 3 37 7 3 0.48
255 4 3 254 0 1 1 33 7 0 0.277
256 4 3 255 1 1 3 33 7 1 0.385
257 4 4 256 0 1 2 38 7 0 0.423
258 4 4 257 0 1 0 31 7 0 0.454
259 4 4 258 1 0 1 31 7 1 0.323
260 4 4 259 0 0 2 31 7 0 0.742
261 4 4 260 2 0 3 34 7 2 0.434
262 4 4 261 3 1 3 33 7 0 0.504
263 4 4 262 0 1 0 31 7 0 0.456
264 4 4 263 0 1 0 31 7 0 0.31
265 4 4 264 0 1 1 32 7 0 0.354
266 4 4 265 0 0 3 31 7 0 0.403
267 4 4 266 2 1 1 33 7 2 0.338
268 4 4 267 1 1 3 38 7 1 0.34
269 4 4 268 0 1 2 31 7 0 0.414
270 4 4 269 3 0 1 34 7 0 0.397
271 4 4 270 1 1 0 31 7 1 0.345
272 4 4 271 2 1 0 31 7 3 0.619
273 4 4 272 1 1 3 32 7 1 0.334
274 4 4 273 2 1 2 35 7 2 0.337
275 4 4 274 3 0 1 33 7 0 0.787
276 4 4 275 1 0 1 31 7 1 0.368
277 4 4 276 0 1 0 32 7 0 0.425
278 4 4 277 2 0 0 32 7 1 0.776
279 4 4 278 0 0 0 31 7 0 0.574
280 4 4 279 1 1 0 37 7 1 0.383
281 4 4 280 0 0 3 31 7 0 0.376
282 4 4 281 3 0 0 31 7 3 0.465
283 4 4 282 1 0 2 31 7 1 0.294
284 4 4 283 3 0 1 31 7 0 0.394
285 4 4 284 2 1 1 32 7 1 0.526
286 4 4 285 1 0 1 31 7 1 0.333
287 4 4 286 3 0 0 31 7 3 0.591
288 4 4 287 3 0 2 35 7 3 0.288
289 4 4 288 3 0 1 35 7 3 0.348
290 4 4 289 2 0 2 35 7 2 0.598
291 4 4 290 0 0 2 31 7 0 0.319
292 4 4 291 3 0 1 34 7 3 0.425
293 4 4 292 3 0 0 33 7 3 0.56
294 4 4 293 0 1 2 33 7 3 0.554
295 4 4 294 2 0 2 32 7 2 0.48
296 4 4 295 1 1 1 37 7 1 0.309
297 4 4 296 3 0 0 31 7 3 0.392
298 4 4 297 3 0 0 31 7 3 0.456
299 4 4 298 0 1 3 31 7 0 0.286
300 4 4 299 2 1 2 32 7 2 0.409
301 4 4 300 1 1 3 31 7 1 0.417
302 4 4 301 0 0 0 31 7 0 0.352
303 4 4 302 2 1 2 38 7 2 0.346
304 4 4 303 2 1 0 31 7 2 0.444
305 4 4 304 3 0 0 31 7 3 0.401
306 4 4 305 3 1 2 34 7 3 0.393
307 4 4 306 3 0 1 31 7 3 0.305
308 4 4 307 2 0 3 31 7 2 0.477
309 4 4 308 0 1 0 31 7 1 0.658
310 4 4 309 1 1 3 31 7 1 0.348
311 4 4 310 3 0 2 36 7 3 0.438
312 4 4 311 1 0 0 31 7 1 0.428
313 4 4 312 2 1 0 32 7 2 0.427
314 4 4 313 0 1 3 31 7 2 0.69
315 4 4 314 0 0 0 35 7 0 0.355
316 4 4 315 3 1 1 37 7 0 0.572
317 4 4 316 0 1 2 33 7 0 0.433
318 4 4 317 0 0 2 33 7 1 0.44
319 4 4 318 3 0 3 34 7 3 0.498
320 4 4 319 0 0 1 33 7 0 0.31
321 6 0 0 2 1 1 35 7 0 0.976
322 6 0 1 0 0 0 37 7 0 0.574
323 6 0 2 2 0 2 34 7 2 1.703
324 6 0 3 0 0 3 32 7 2 0.828
325 6 0 4 0 0 2 32 7 1 0.648
326 6 0 5 0 1 3 31 7 1 1.746
327 6 0 6 2 0 2 35 7 1 0.908
328 6 0 7 2 1 2 32 7 1 0.981
329 6 0 8 2 0 2 31 7 2 0.779
330 6 0 9 1 0 1 33 7 1 1.421
331 6 0 10 2 0 0 33 7 1 0.639
332 6 0 11 3 1 2 32 7 1 1.085
333 6 0 12 1 0 0 35 7 1 0.927
334 6 0 13 0 1 1 33 7 1 1.979
335 6 0 14 1 0 1 32 7 1 1.101
336 6 0 15 0 1 3 32 7 3 2.027
337 6 0 16 3 1 1 33 7 1 0.803
338 6 0 17 1 1 1 31 7 1 0.872
339 6 0 18 3 1 0 32 7 2 1.013
340 6 0 19 1 1 2 32 7 1 0.826
341 6 0 20 0 1 2 33 7 1 1.194
342 6 0 21 2 1 0 32 7 1 0.785
343 6 0 22 3 0 0 37 7 2 0.829
344 6 0 23 1 1 3 32 7 2 2.273
345 6 0 24 1 1 0 32 7 1 0.921
346 6 0 25 2 0 1 31 7 2 1.485
347 6 0 26 3 1 2 33 7 3 1.686
348 6 0 27 2 0 3 31 7 2 0.799
349 6 0 28 1 0 0 32 7 1 0.632
350 6 0 29 0 0 2 32 7 3 1.239
351 6 0 30 0 0 1 31 7 1 0.643
352 6 0 31 0 1 3 31 7 0 0.966
353 6 0 32 2 1 0 31 7 1 0.753
354 6 0 33 1 1 2 34 7 2 0.711
355 6 0 34 2 0 1 31 7 1 0.671
356 6 0 35 1 0 0 36 7 1 1.119
357 6 0 36 0 1 2 31 7 3 1.108
358 6 0 37 3 0 1 35 7 3 0.75
359 6 0 38 2 0 2 32 7 2 0.793
360 6 0 39 1 0 3 31 7 1 0.65
361 6 0 40 3 1 3 32 7 1 1
362 6 0 41 1 1 0 33 7 2 1.55
363 6 0 42 3 0 2 31 7 3 0.807
364 6 0 43 3 0 2 33 7 3 0.432
365 6 0 44 1 1 0 34 7 2 1.006
366 6 0 45 2 1 1 41 7 0 0.739
367 6 0 46 3 0 2 33 7 3 0.897
368 6 0 47 2 0 1 31 7 1 0.806
369 6 0 48 2 0 2 31 7 2 1.018
370 6 0 49 2 1 3 33 7 3 0.859
371 6 0 50 2 1 2 32 7 2 1.525
372 6 0 51 2 1 2 31 7 2 0.628
373 6 0 52 2 1 3 32 7 2 1.259
374 6 0 53 1 1 1 34 7 1 0.779
375 6 0 54 2 1 1 33 7 2 0.701
376 6 0 55 2 1 3 31 7 2 0.665
377 6 0 56 1 1 2 36 7 1 0.647
378 6 0 57 2 0 2 33 7 2 0.774
379 6 0 58 0 1 3 31 7 3 0.864
380 6 0 59 0 1 2 32 7 2 0.762
381 6 0 60 0 0 1 32 7 0 0.76
382 6 0 61 3 1 3 32 7 3 0.77
383 6 0 62 3 0 2 32 7 2 0.836
384 6 0 63 3 1 3 31 7 2 0.839
385 6 1 64 3 0 2 37 7 2 0.629
386 6 1 65 1 1 0 32 7 1 0.968
387 6 1 66 0 1 2 34 7 3 1.098
388 6 1 67 2 0 3 33 7 2 0.66
389 6 1 68 3 1 3 32 7 3 0.81
390 6 1 69 3 0 0 35 7 3 0.946
391 6 1 70 1 0 0 32 7 1 0.75
392 6 1 71 0 1 3 33 7 3 0.905
393 6 1 72 0 1 2 32 7 1 1.177
394 6 1 73 0 1 3 32 7 3 0.833
395 6 1 74 1 0 3 32 7 0 0.74
396 6 1 75 1 0 1 34 7 2 1.035
397 6 1 76 2 0 2 31 7 1 0.823
398 6 1 77 1 1 1 33 7 3 0.922
399 6 1 78 2 1 1 32 7 0 0.485
400 6 1 79 2 0 0 34 7 2 0.965
401 6 1 80 0 1 1 31 7 3 1.183
402 6 1 81 2 1 2 32 7 0 1.19
403 6 1 82 3 1 0 31 7 1 0.837
404 6 1 83 1 1 2 33 7 2 1.047
405 6 1 84 3 0 0 33 7 2 0.929
406 6 1 85 1 1 2 32 7 0 0.569
407 6 1 86 2 1 0 35 7 2 0.678
408 6 1 87 2 1 0 35 7 2 0.748
409 6 1 88 1 1 2 33 7 1 0.959
410 6 1 89 1 1 3 33 7 2 0.786
411 6 1 90 1 0 3 31 7 2 0.998
412 6 1 91 2 0 0 33 7 1 1.092
413 6 1 92 2 1 2 31 7 2 0.834
414 6 1 93 2 1 0 36 7 1 1.722
415 6 1 94 3 0 0 35 7 2 0.613
416 6 1 95 1 1 3 32 7 3 0.568
417 6 1 96 2 0 0 32 7 2 0.941
418 6 1 97 2 1 3 35 7 2 0.944
419 6 1 98 2 0 1 33 7 2 0.836
420 6 1 99 3 1 0 31 7 1 1.18
421 6 1 100 3 1 2 33 7 2 1.379
422 6 1 101 2 0 3 35 7 2 0.843
423 6 1 102 1 0 1 32 7 1 0.882
424 6 1 103 3 0 1 31 7 3 0.744
425 6 1 104 1 0 2 38 7 2 1.491
426 6 1 105 0 0 2 31 7 0 0.655
427 6 1 106 2 1 1 33 7 2 0.933
428 6 1 107 2 1 1 40 7 2 0.753
429 6 1 108 0 0 3 32 7 1 0.764
430 6 1 109 1 1 3 33 7 2 0.826
431 6 1 110 3 0 1 33 7 3 0.901
432 6 1 111 0 0 1 32 7 2 0.834
433 6 1 112 0 1 0 32 7 1 1.077
434 6 1 113 1 0 3 33 7 2 0.847
435 6 1 114 2 0 2 31 7 2 0.738
436 6 1 115 2 1 1 31 7 1 0.868
437 6 1 116 2 0 1 31 7 2 0.83
438 6 1 117 1 0 2 31 7 1 0.582
439 6 1 118 0 0 1 31 7 1 0.823
440 6 1 119 0 0 0 32 7 2 0.763
441 6 1 120 3 0 3 31 7 3 0.569
442 6 1 121 2 1 2 31 7 1 1.314
443 6 1 122 0 0 2 36 7 1 0.812
444 6 1 123 2 1 0 31 7 2 0.104
445 6 1 124 0 0 3 31 7 2 0.554
446 6 1 125 0 0 0 31 7 0 0.687
447 6 1 126 3 0 1 31 7 3 0.764
448 6 1 127 3 0 0 32 7 3 0.717
449 6 2 128 0 1 2 32 7 2 0.941
450 6 2 129 0 0 0 35 7 0 1.061
451 6 2 130 1 0 0 34 7 1 1.109
452 6 2 131 1 1 0 31 7 1 0.594
453 6 2 132 3 1 2 33 7 3 0.851
454 6 2 133 2 1 3 31 7 1 1.05
455 6 2 134 0 1 0 33 7 3 0.877
456 6 2 135 1 0 0 32 7 1 0.663
457 6 2 136 3 1 2 34 7 3 1.597
458 6 2 137 1 1 0 34 7 3 0.817
459 6 2 138 0 1 0 31 7 2 0.629
460 6 2 139 2 0 3 33 7 3 0.952
461 6 2 140 3 0 3 33 7 3 0.679
462 6 2 141 0 0 3 33 7 2 0.844
463 6 2 142 1 1 1 32 7 0 1.575
464 6 2 143 1 1 1 34 7 1 1.536
465 6 2 144 2 0 0 33 7 2 0.791
466 6 2 145 1 0 1 36 7 2 0.72
467 6 2 146 1 1 3 31 7 2 1.095
468 6 2 147 1 1 2 31 7 3 1.449
469 6 2 148 2 0 1 36 7 2 0.79
470 6 2 149 3 0 1 32 7 3 1.119
471 6 2 150 1 0 2 32 7 1 0.757
472 6 2 151 1 0 3 33 7 1 0.703
473 6 2 152 3 0 0 32 7 3 0.875
474 6 2 153 1 1 3 32 7 3 0.872
475 6 2 154 3 1 3 33 7 3 0.666
476 6 2 155 3 1 1 33 7 3 0.664
477 6 2 156 2 1 3 41 7 2 0.75
478 6 2 157 3 1 3 35 7 3 0.569
479 6 2 158 0 1 0 31 7 1 0.882
480 6 2 159 1 1 3 35 7 1 0.747
481 6 2 160 1 0 2 32 7 1 0.63
482 6 2 161 0 1 3 33 7 2 0.726
483 6 2 162 3 1 0 35 7 3 0.693
484 6 2 163 2 0 3 32 7 3 0.722
485 6 2 164 1 1 2 31 7 1 0.897
486 6 2 165 1 1 1 37 7 1 0.806
487 6 2 166 3 1 3 31 7 3 0.727
488 6 2 167 3 0 1 35 7 3 0.739
489 6 2 168 0 1 2 33 7 3 0.582
490 6 2 169 3 1 2 31 7 3 0.554
491 6 2 170 3 1 1 31 7 3 0.58
492 6 2 171 3 1 0 35 7 3 0.637
493 6 2 172 2 0 0 34 7 2 0.731
494 6 2 173 2 1 0 35 7 2 0.607
495 6 2 174 1 1 3 31 7 3 0.639
496 6 2 175 0 1 1 31 7 0 1.329
497 6 2 176 3 1 0 36 7 3 0.662
498 6 2 177 1 0 1 32 7 2 0.634
499 6 2 178 0 1 1 34 7 1 0.588
500 6 2 179 2 1 1 34 7 2 0.688
501 6 2 180 1 0 2 31 7 1 0.669
502 6 2 181 2 0 1 37 7 2 0.715
503 6 2 182 3 0 3 31 7 3 0.735
504 6 2 183 3 1 1 31 7 3 0.986
505 6 2 184 3 0 3 34 7 3 0.724
506 6 2 185 1 1 1 32 7 2 0.791
507 6 2 186 3 0 1 31 7 3 0.588
508 6 2 187 0 0 3 31 7 2 1.157
509 6 2 188 1 0 1 33 7 1 0.604
510 6 2 189 3 0 1 35 7 3 1.132
511 6 2 190 0 0 0 34 7 2 1.681
512 6 2 191 3 1 3 31 7 3 0.87
513 6 3 192 0 0 1 33 7 2 0.749
514 6 3 193 0 0 0 32 7 1 0.732
515 6 3 194 3 1 0 31 7 3 1.747
516 6 3 195 0 1 0 33 7 0 0.689
517 6 3 196 1 0 0 34 7 1 0.646
518 6 3 197 2 0 2 34 7 2 0.829
519 6 3 198 0 0 0 32 7 1 0.742
520 6 3 199 1 0 3 32 7 3 0.732
521 6 3 200 0 0 2 40 7 3 1.651
522 6 3 201 2 0 3 32 7 2 0.809
523 6 3 202 3 0 1 31 7 3 0.61
524 6 3 203 1 0 0 31 7 2 0.762
525 6 3 204 3 0 0 35 7 3 0.545
526 6 3 205 1 0 2 31 7 2 0.755
527 6 3 206 1 0 2 32 7 1 0.649
528 6 3 207 1 1 3 31 7 3 0.735
529 6 3 208 0 0 2 33 7 0 0.765
530 6 3 209 2 0 0 31 7 2 0.768
531 6 3 210 0 1 1 32 7 1 1.034
532 6 3 211 1 0 3 31 7 2 1.022
533 6 3 212 3 0 1 31 7 3 0.578
534 6 3 213 1 0 1 34 7 1 0.651
535 6 3 214 2 1 2 31 7 2 0.809
536 6 3 215 0 0 3 31 7 2 0.73
537 6 3 216 3 1 1 34 7 2 0.881
538 6 3 217 1 1 0 32 7 3 0.659
539 6 3 218 3 1 2 33 7 0 0.436
540 6 3 219 0 0 2 37 7 1 0.062
541 6 3 220 3 0 0 37 7 3 0.772
542 6 3 221 0 0 1 33 7 0 0.926
543 6 3 222 1 0 0 31 7 3 1.099
544 6 3 223 1 1 3 32 7 2 0.836
545 6 3 224 1 0 3 32 7 1 0.68
546 6 3 225 2 1 2 32 7 1 0.853
547 6 3 226 0 0 0 31 7 3 0.967
548 6 3 227 1 0 3 35 7 2 1.534
549 6 3 228 0 0 3 33 7 1 0.536
550 6 3 229 2 1 1 31 7 1 0.565
551 6 3 230 3 1 2 32 7 3 0.318
552 6 3 231 1 0 0 31 7 2 0.904
553 6 3 232 1 1 1 34 7 3 0.792
554 6 3 233 0 0 2 31 7 0 0.94
555 6 3 234 2 1 2 32 7 2 0.888
556 6 3 235 0 0 1 31 7 2 0.677
557 6 3 236 3 1 1 31 7 1 0.654
558 6 3 237 3 0 2 32 7 3 0.568
559 6 3 238 2 1 0 31 7 2 0.745
560 6 3 239 3 1 3 33 7 3 0.788
561 6 3 240 3 0 3 37 7 3 0.525
562 6 3 241 3 1 0 33 7 3 0.632
563 6 3 242 0 1 1 31 7 1 0.791
564 6 3 243 0 1 0 33 7 0 1.116
565 6 3 244 0 0 2 31 7 2 0.721
566 6 3 245 0 0 2 32 7 1 0.622
567 6 3 246 3 0 3 34 7 3 0.641
568 6 3 247 2 1 3 31 7 0 1.087
569 6 3 248 2 1 1 31 7 2 0.865
570 6 3 249 3 1 1 32 7 2 0.744
571 6 3 250 0 1 0 33 7 1 1.007
572 6 3 251 3 0 2 31 7 3 0.716
573 6 3 252 3 1 0 31 7 3 0.832
574 6 3 253 0 1 3 32 7 0 0.888
575 6 3 254 0 0 0 33 7 0 0.59
576 6 3 255 0 0 3 35 7 3 0.558
577 6 4 256 2 0 1 32 7 2 0.78
578 6 4 257 3 0 3 31 7 3 0.582
579 6 4 258 2 1 0 40 7 0 1.039
580 6 4 259 3 1 1 34 7 3 1.091
581 6 4 260 2 1 3 37 7 3 0.762
582 6 4 261 1 0 1 31 7 1 0.616
583 6 4 262 0 0 3 33 7 2 0.855
584 6 4 263 2 0 1 37 7 2 0.81
585 6 4 264 2 0 3 31 7 2 0.554
586 6 4 265 2 0 0 31 7 2 0.612
587 6 4 266 3 0 2 32 7 3 0.636
588 6 4 267 0 0 1 34 7 2 0.826
589 6 4 268 3 0 2 33 7 3 0.59
590 6 4 269 3 0 3 32 7 3 0.51
591 6 4 270 0 1 1 32 7 1 0.961
592 6 4 271 1 1 2 31 7 2 0.816
593 6 4 272 0 1 1 31 7 2 0.924
594 6 4 273 0 1 1 32 7 0 1.54
595 6 4 274 0 1 2 34 7 3 0.779
596 6 4 275 2 0 3 33 7 2 0.752
597 6 4 276 1 0 2 32 7 1 0.642
598 6 4 277 0 0 0 33 7 1 0.761
599 6 4 278 3 0 2 32 7 3 0.671
600 6 4 279 1 0 2 31 7 1 0.676
601 6 4 280 3 1 2 35 7 3 0.794
602 6 4 281 3 1 2 31 7 3 0.627
603 6 4 282 1 1 1 31 7 1 1.034
604 6 4 283 2 0 0 31 7 2 1.075
605 6 4 284 1 1 0 38 7 2 0.634
606 6 4 285 0 0 3 31 7 3 0.66
607 6 4 286 0 1 0 32 7 0 0.533
608 6 4 287 2 0 0 31 7 2 0.72
609 6 4 288 1 1 1 31 7 1 1.148
610 6 4 289 1 1 2 31 7 1 1.168
611 6 4 290 0 0 1 31 7 1 0.844
612 6 4 291 2 0 2 31 7 1 0.679
613 6 4 292 3 1 0 37 7 2 0.76
614 6 4 293 0 1 3 32 7 3 0.614
615 6 4 294 3 1 3 34 7 3 0.617
616 6 4 295 3 0 0 37 7 3 0.689
617 6 4 296 3 1 1 34 7 0 1.896
618 6 4 297 2 0 1 31 7 1 0.757
619 6 4 298 3 0 3 31 7 3 0.667
620 6 4 299 1 0 1 31 7 1 0.889
621 6 4 300 3 0 3 32 7 3 0.783
622 6 4 301 1 0 2 32 7 1 2.048
623 6 4 302 2 1 2 37 7 3 0.692
624 6 4 303 0 0 1 31 7 0 0.637
625 6 4 304 0 1 2 33 7 1 0.707
626 6 4 305 1 1 0 34 7 2 1.011
627 6 4 306 0 1 0 31 7 0 1.488
628 6 4 307 0 1 1 31 7 1 0.688
629 6 4 308 2 0 3 31 7 3 1.136
630 6 4 309 2 1 3 32 7 2 0.785
631 6 4 310 2 1 3 31 7 2 0.634
632 6 4 311 3 1 1 31 7 3 0.736
633 6 4 312 1 0 3 32 7 1 0.587
634 6 4 313 2 1 0 32 7 2 1.148
635 6 4 314 2 0 3 34 7 3 0.729
636 6 4 315 0 1 3 31 7 0 0.72
637 6 4 316 3 0 0 34 7 3 0.819
638 6 4 317 0 1 0 31 7 3 0.843
639 6 4 318 0 1 2 32 7 3 1.086
640 6 4 319 1 1 0 31 7 1 0.736
641 9 0 0 0 1 0 34 7 1 2.027
642 9 0 1 0 1 0 31 7 0 0.556
643 9 0 2 1 1 0 31 7 1 0.686
644 9 0 3 3 0 1 31 7 3 3.299
645 9 0 4 3 1 0 32 7 2 2.379
646 9 0 5 2 1 2 36 7 1 4.68
647 9 0 6 0 0 0 34 7 1 0.938
648 9 0 7 2 1 1 32 7 0 0.793
649 9 0 8 2 1 3 31 7 2 1.231
650 9 0 9 2 1 1 31 7 2 4.281
651 9 0 10 0 1 2 31 7 0 0.838
652 9 0 11 1 0 0 31 7 1 0.63
653 9 0 12 2 0 1 31 7 1 0.782
654 9 0 13 2 1 0 31 7 1 0.66
655 9 0 14 0 1 0 39 7 2 0.71
656 9 0 15 3 0 3 31 7 1 0.655
657 9 0 16 2 1 3 32 7 2 0.897
658 9 0 17 3 1 2 32 7 1 1.071
659 9 0 18 3 1 2 31 7 3 2.41
660 9 0 19 0 1 1 33 7 3 4.282
661 9 0 20 3 0 3 31 7 1 1.106
662 9 0 21 2 0 2 31 7 2 1.141
663 9 0 22 2 1 3 31 7 2 1.05
664 9 0 23 0 1 3 38 7 2 0.882
665 9 0 24 2 0 3 31 7 2 1.189
666 9 0 25 0 0 2 33 7 2 0.72
667 9 0 26 3 0 0 31 7 3 0.656
668 9 0 27 0 0 1 31 7 3 1.671
669 9 0 28 2 0 3 33 7 1 0.949
670 9 0 29 3 0 0 37 7 3 0.652
671 9 0 30 0 0 2 31 7 2 0.771
672 9 0 31 1 1 1 31 7 0 0.865
673 9 0 32 0 0 1 31 7 1 3.281
674 9 0 33 3 0 2 32 7 3 0.517
675 9 0 34 2 1 0 31 7 3 0.697
676 9 0 35 0 1 2 40 7 1 5.354
677 9 0 36 3 0 3 35 7 3 0.604
678 9 0 37 2 0 0 31 7 1 0.692
679 9 0 38 1 0 3 37 7 2 1.235
680 9 0 39 0 1 3 32 7 0 0.737
681 9 0 40 1 0 1 32 7 1 0.572
682 9 0 41 0 0 2 33 7 1 1.206
683 9 0 42 0 0 3 32 7 1 2.484
684 9 0 43 0 1 3 31 7 0 0.829
685 9 0 44 0 1 2 32 7 0 0.574
686 9 0 45 3 0 0 36 7 3 0.527
687 9 0 46 2 0 2 31 7 2 0.763
688 9 0 47 2 0 2 31 7 2 0.71
689 9 0 48 3 0 1 32 7 3 0.522
690 9 0 49 1 0 1 32 7 3 0.55
691 9 0 50 2 1 3 31 7 2 0.756
692 9 0 51 0 1 1 32 7 2 0.791
693 9 0 52 3 0 2 31 7 3 0.564
694 9 0 53 1 1 2 32 7 2 3.071
695 9 0 54 3 0 1 32 7 3 0.491
696 9 0 55 1 0 3 34 7 1 1.407
697 9 0 56 3 1 3 31 7 0 0.779
698 9 0 57 2 1 0 31 7 1 1.281
699 9 0 58 2 0 3 32 7 2 0.805
700 9 0 59 1 1 1 32 7 3 0.942
701 9 0 60 3 0 3 31 7 3 1.334
702 9 0 61 1 1 0 34 7 1 0.981
703 9 0 62 2 0 1 31 7 2 0.752
704 9 0 63 0 0 2 34 7 1 0.702
705 9 1 64 2 0 1 34 7 2 1.436
706 9 1 65 1 0 2 31 7 1 1.494
707 9 1 66 1 0 2 34 7 1 0.471
708 9 1 67 2 0 3 34 7 1 0.498
709 9 1 68 1 1 1 31 7 1 0.546
710 9 1 69 2 1 0 31 7 2 0.74
711 9 1 70 3 1 3 36 7 2 3.904
712 9 1 71 3 1 3 36 7 3 0.63
713 9 1 72 1 0 2 31 7 1 0.597
714 9 1 73 2 1 1 32 7 1 0.622
715 9 1 74 2 0 0 32 7 2 0.914
716 9 1 75 0 0 1 35 7 0 0.638
717 9 1 76 3 0 1 38 7 3 0.573
718 9 1 77 2 1 2 35 7 2 1.511
719 9 1 78 3 1 1 39 7 3 0.503
720 9 1 79 2 1 0 31 7 1 0.851
721 9 1 80 0 0 1 33 7 0 0.486
722 9 1 81 0 1 1 31 7 0 0.435
723 9 1 82 3 1 1 31 7 3 0.481
724 9 1 83 2 0 0 31 7 2 1.494
725 9 1 84 3 1 3 31 7 3 0.571
726 9 1 85 3 1 3 32 7 3 0.428
727 9 1 86 2 0 3 36 7 1 1.811
728 9 1 87 3 0 3 32 7 3 0.548
729 9 1 88 2 1 2 31 7 2 0.855
730 9 1 89 3 1 1 35 7 3 0.622
731 9 1 90 3 1 2 32 7 3 0.854
732 9 1 91 3 1 0 32 7 2 0.861
733 9 1 92 0 0 3 33 7 0 0.776
734 9 1 93 1 1 1 32 7 0 0.587
735 9 1 94 3 0 3 31 7 3 1.535
736 9 1 95 2 0 0 31 7 2 0.718
737 9 1 96 0 0 3 33 7 1 1.426
738 9 1 97 1 0 2 31 7 2 1.089
739 9 1 98 2 0 0 37 7 1 0.564
740 9 1 99 2 0 1 33 7 1 0.602
741 9 1 100 2 1 2 49 7 2 0.926
742 9 1 101 0 0 3 32 7 2 0.963
743 9 1 102 1 0 0 33 7 1 0.506
744 9 1 103 0 0 1 40 7 1 0.582
745 9 1 104 0 1 1 32 7 0 0.579
746 9 1 105 0 1 1 39 7 0 0.517
747 9 1 106 3 1 0 31 7 3 0.601
748 9 1 107 2 0 0 31 7 1 0.865
749 9 1 108 3 1 3 33 7 2 0.796
750 9 1 109 2 1 2 34 7 1 0.537
751 9 1 110 2 0 2 36 7 2 0.816
752 9 1 111 1 0 2 32 7 1 0.913
753 9 1 112 1 1 2 34 7 2 0.751
754 9 1 113 1 1 0 33 7 1 2.157
755 9 1 114 1 0 1 34 7 1 0.494
756 9 1 115 0 0 0 31 7 1 0.563
757 9 1 116 0 0 1 34 7 2 0.897
758 9 1 117 1 1 2 31 7 1 0.578
759 9 1 118 0 0 2 32 7 1 0.828
760 9 1 119 3 0 2 31 7 3 0.584
761 9 1 120 0 0 0 31 7 1 0.728
762 9 1 121 3 0 0 31 7 3 0.64
763 9 1 122 0 0 1 32 7 0 0.647
764 9 1 123 3 0 3 31 7 3 0.695
765 9 1 124 0 0 1 31 7 3 0.652
766 9 1 125 0 0 1 33 7 2 1.174
767 9 1 126 0 1 0 33 7 0 0.646
768 9 1 127 2 0 2 35 7 2 1.109
769 9 2 128 3 1 3 37 7 3 0.531
770 9 2 129 1 1 2 31 7 1 0.694
771 9 2 130 0 0 0 35 7 0 0.5
772 9 2 131 0 1 0 31 7 0 0.504
773 9 2 132 3 0 0 34 7 3 0.476
774 9 2 133 1 0 2 32 7 1 0.537
775 9 2 134 0 1 0 32 7 3 0.868
776 9 2 135 2 0 1 31 7 2 0.822
777 9 2 136 0 0 2 32 7 0 0.463
778 9 2 137 2 0 2 31 7 2 0.821
779 9 2 138 1 1 1 32 7 0 0.461
780 9 2 139 1 0 3 31 7 1 0.671
781 9 2 140 1 1 0 32 7 0 0.637
782 9 2 141 0 0 0 33 7 0 0.503
783 9 2 142 3 1 2 31 7 3 1.043
784 9 2 143 0 1 1 35 7 0 2.044
785 9 2 144 2 1 2 34 7 2 0.809
786 9 2 145 2 1 0 33 7 0 0.682
787 9 2 146 1 1 2 31 7 1 0.748
788 9 2 147 3 1 0 31 7 3 0.583
789 9 2 148 1 1 1 34 7 1 0.512
790 9 2 149 3 0 0 31 7 3 0.508
791 9 2 150 3 1 2 31 7 2 1.504
792 9 2 151 3 1 0 34 7 3 0.532
793 9 2 152 0 1 0 36 7 0 0.735
794 9 2 153 1 0 1 32 7 0 0.891
795 9 2 154 3 0 3 31 7 3 0.533
796 9 2 155 2 1 2 32 7 2 3.832
797 9 2 156 3 1 2 32 7 3 0.581
798 9 2 157 2 1 3 33 7 3 0.598
799 9 2 158 2 0 1 34 7 2 0.539
800 9 2 159 2 1 3 31 7 3 0.541
801 9 2 160 2 1 1 31 7 2 0.78
802 9 2 161 3 1 1 34 7 2 0.614
803 9 2 162 3 0 3 31 7 3 0.658
804 9 2 163 2 0 1 32 7 2 0.481
805 9 2 164 1 0 0 31 7 0 0.534
806 9 2 165 1 1 1 33 7 0 0.556
807 9 2 166 2 0 0 31 7 2 0.682
808 9 2 167 1 1 3 33 7 3 0.903
809 9 2 168 0 0 2 31 7 0 0.472
810 9 2 169 0 0 3 33 7 0 0.454
811 9 2 170 3 1 1 32 7 3 0.555
812 9 2 171 3 0 1 31 7 3 0.421
813 9 2 172 2 0 3 32 7 1 0.964
814 9 2 173 3 0 1 31 7 3 0.492
815 9 2 174 3 0 2 32 7 2 0.84
816 9 2 175 3 1 0 31 7 3 0.492
817 9 2 176 3 1 2 31 7 2 0.504
818 9 2 177 0 1 2 34 7 2 0.991
819 9 2 178 1 0 0 33 7 1 0.758
820 9 2 179 3 0 2 34 7 3 0.473
821 9 2 180 1 0 3 32 7 0 0.662
822 9 2 181 0 1 2 33 7 0 0.728
823 9 2 182 1 1 3 31 7 1 1.252
824 9 2 183 0 1 1 32 7 2 0.941
825 9 2 184 2 0 3 32 7 2 0.645
826 9 2 185 3 1 1 37 7 3 0.629
827 9 2 186 1 1 3 31 7 0 0.788
828 9 2 187 1 0 0 32 7 1 0.841
829 9 2 188 0 0 2 32 7 0 0.705
830 9 2 189 2 1 2 32 7 2 0.782
831 9 2 190 1 1 0 32 7 1 1.248
832 9 2 191 3 1 2 31 7 0 0.674
833 9 3 192 3 1 1 31 7 3 0.463
834 9 3 193 0 1 3 31 7 0 1.02
835 9 3 194 2 1 0 32 7 2 0.659
836 9 3 195 2 1 0 33 7 2 0.53
837 9 3 196 1 0 2 31 7 1 0.453
838 9 3 197 2 1 1 34 7 2 0.539
839 9 3 198 2 1 3 32 7 2 0.597
840 9 3 199 2 0 2 31 7 2 0.573
841 9 3 200 1 1 3 33 7 1 0.535
842 9 3 201 1 1 2 34 7 1 0.49
843 9 3 202 1 1 3 31 7 1 0.558
844 9 3 203 1 0 0 31 7 1 0.456
845 9 3 204 2 1 0 33 7 1 0.622
846 9 3 205 0 0 0 32 7 1 0.545
847 9 3 206 2 0 1 31 7 2 0.496
848 9 3 207 2 1 1 32 7 2 1.908
849 9 3 208 2 0 3 31 7 1 0.886
850 9 3 209 1 1 3 31 7 1 0.6
851 9 3 210 1 0 1 32 7 1 0.449
852 9 3 211 0 0 2 35 7 0 0.423
853 9 3 212 0 0 0 31 7 0 0.494
854 9 3 213 1 0 1 37 7 1 0.467
855 9 3 214 2 1 1 35 7 0 0.464
856 9 3 215 3 1 1 31 7 3 0.994
857 9 3 216 0 0 0 31 7 0 0.676
858 9 3 217 0 1 0 31 7 0 0.65
859 9 3 218 0 0 3 31 7 3 0.986
860 9 3 219 0 0 3 32 7 1 0.976
861 9 3 220 1 1 0 31 7 1 0.615
862 9 3 221 0 0 3 31 7 0 0.526
863 9 3 222 1 0 1 31 7 1 0.458
864 9 3 223 1 1 1 34 7 1 0.496
865 9 3 224 2 1 3 31 7 2 0.707
866 9 3 225 1 0 3 33 7 1 0.64
867 9 3 226 0 1 3 35 7 1 0.687
868 9 3 227 0 1 2 32 7 0 0.48
869 9 3 228 1 0 3 31 7 1 0.669
870 9 3 229 1 0 3 32 7 1 0.539
871 9 3 230 1 0 0 32 7 2 0.742
872 9 3 231 1 1 3 31 7 0 0.653
873 9 3 232 0 1 3 31 7 0 0.423
874 9 3 233 0 1 2 43 7 0 0.373
875 9 3 234 0 1 0 33 7 0 0.461
876 9 3 235 1 0 2 34 7 1 0.419
877 9 3 236 0 1 1 33 7 0 0.586
878 9 3 237 0 0 1 34 7 0 0.467
879 9 3 238 0 1 3 32 7 0 1.313
880 9 3 239 2 0 1 32 7 2 0.611
881 9 3 240 1 0 3 31 7 2 0.972
882 9 3 241 0 1 3 31 7 0 1.251
883 9 3 242 0 1 1 33 7 0 0.42
884 9 3 243 2 0 0 32 7 2 0.803
885 9 3 244 2 1 1 35 7 2 0.42
886 9 3 245 0 0 0 31 7 0 0.507
887 9 3 246 1 0 3 33 7 1 0.711
888 9 3 247 1 0 2 31 7 1 0.579
889 9 3 248 3 1 3 33 7 1 0.805
890 9 3 249 1 1 0 32 7 1 0.458
891 9 3 250 2 1 2 33 7 2 0.656
892 9 3 251 0 1 0 31 7 0 0.414
893 9 3 252 0 0 3 31 7 2 0.67
894 9 3 253 3 0 1 32 7 3 0.551
895 9 3 254 2 0 2 32 7 2 0.602
896 9 3 255 3 1 0 37 7 3 0.682
897 9 4 256 2 0 0 32 7 2 1.132
898 9 4 257 1 1 2 31 7 1 0.586
899 9 4 258 0 1 2 36 7 0 0.427
900 9 4 259 3 0 2 32 7 3 0.514
901 9 4 260 1 0 1 32 7 1 0.47
902 9 4 261 1 0 0 33 7 1 0.515
903 9 4 262 2 1 0 31 7 1 0.83
904 9 4 263 1 1 0 41 7 1 0.49
905 9 4 264 2 0 2 31 7 2 0.447
906 9 4 265 2 1 1 32 7 2 0.829
907 9 4 266 2 0 3 32 7 1 0.814
908 9 4 267 3 1 0 32 7 3 0.63
909 9 4 268 3 0 2 31 7 3 0.43
910 9 4 269 0 1 2 32 7 2 0.773
911 9 4 270 3 0 2 33 7 3 0.427
912 9 4 271 3 0 0 31 7 3 0.546
913 9 4 272 3 1 0 34 7 3 0.533
914 9 4 273 3 0 1 33 7 3 0.408
915 9 4 274 3 1 2 35 7 3 2.143
916 9 4 275 1 1 2 32 7 1 0.51
917 9 4 276 1 1 0 33 7 2 0.738
918 9 4 277 3 1 1 31 7 3 0.521
919 9 4 278 2 0 0 33 7 3 0.565
920 9 4 279 0 0 0 33 7 2 0.874
921 9 4 280 1 1 3 31 7 1 0.709
922 9 4 281 1 0 3 34 7 1 0.457
923 9 4 282 1 1 3 40 7 1 0.695
924 9 4 283 1 1 1 33 7 2 0.557
925 9 4 284 2 1 3 31 7 2 0.482
926 9 4 285 1 1 2 31 7 1 0.455
927 9 4 286 3 1 0 31 7 3 0.509
928 9 4 287 2 0 2 34 7 2 0.529
929 9 4 288 3 1 3 31 7 3 0.556
930 9 4 289 1 0 2 34 7 1 0.407
931 9 4 290 3 0 0 32 7 3 0.374
932 9 4 291 0 0 3 32 7 0 0.495
933 9 4 292 2 0 3 31 7 1 0.467
934 9 4 293 3 1 3 31 7 3 0.524
935 9 4 294 3 0 2 33 7 3 0.471
936 9 4 295 3 1 2 33 7 2 0.788
937 9 4 296 0 1 2 33 7 2 0.93
938 9 4 297 1 1 3 32 7 1 0.61
939 9 4 298 1 0 1 31 7 3 0.931
940 9 4 299 3 0 0 31 7 3 0.491
941 9 4 300 3 0 1 32 7 3 0.528
942 9 4 301 1 1 0 31 7 1 0.635
943 9 4 302 1 1 1 35 7 1 0.802
944 9 4 303 1 0 1 32 7 1 0.524
945 9 4 304 0 1 1 31 7 3 1.103
946 9 4 305 2 1 1 31 7 2 0.425
947 9 4 306 3 0 2 34 7 3 0.496
948 9 4 307 1 1 2 32 7 2 0.869
949 9 4 308 0 0 2 37 7 0 0.495
950 9 4 309 2 1 3 40 7 2 1.676
951 9 4 310 0 1 3 34 7 0 0.63
952 9 4 311 1 0 0 34 7 1 0.549
953 9 4 312 3 1 1 34 7 3 0.471
954 9 4 313 1 0 0 34 7 1 0.628
955 9 4 314 2 1 2 31 7 2 0.836
956 9 4 315 3 0 0 34 7 3 0.532
957 9 4 316 2 0 1 33 7 2 0.727
958 9 4 317 3 0 3 32 7 3 0.482
959 9 4 318 3 0 1 31 7 3 0.416
960 9 4 319 0 1 3 32 7 3 0.655
961 15 0 0 0 1 0 33 7 0 1.147
962 15 0 1 1 1 1 37 7 0 0.824
963 15 0 2 3 1 3 32 7 0 1.172
964 15 0 3 0 0 0 39 7 1 1.459
965 15 0 4 1 0 3 34 7 0 0.728
966 15 0 5 3 1 2 32 7 0 0.871
967 15 0 6 0 1 3 36 7 0 0.657
968 15 0 7 0 1 2 32 7 0 1.375
969 15 0 8 2 1 1 31 7 0 0.627
970 15 0 9 1 1 1 34 7 1 0.71
971 15 0 10 2 0 2 31 7 1 0.77
972 15 0 11 1 0 2 36 7 0 0.496
973 15 0 12 2 0 1 35 7 1 0.791
974 15 0 13 1 0 0 36 7 1 0.724
975 15 0 14 3 1 3 34 7 3 0.688
976 15 0 15 1 1 0 32 7 3 0.732
977 15 0 16 1 0 2 32 7 1 0.652
978 15 0 17 3 1 0 32 7 1 1.05
979 15 0 18 3 0 0 32 7 2 0.906
980 15 0 19 2 0 1 41 7 1 0.739
981 15 0 20 2 1 2 37 7 0 0.578
982 15 0 21 1 0 2 39 7 1 0.55
983 15 0 22 3 0 2 31 7 0 0.632
984 15 0 23 3 0 0 31 7 1 0.667
985 15 0 24 3 0 0 45 7 1 0.701
986 15 0 25 0 0 1 33 7 0 0.765
987 15 0 26 3 0 0 35 7 0 0.599
988 15 0 27 3 1 2 33 7 0 0.731
989 15 0 28 2 1 3 31 7 0 1.269
990 15 0 29 0 0 2 32 7 0 0.624
991 15 0 30 3 0 2 34 7 0 0.399
992 15 0 31 2 0 2 31 7 1 0.634
993 15 0 32 0 0 2 35 7 0 0.477
994 15 0 33 3 0 0 31 7 1 1.025
995 15 0 34 3 1 2 32 7 0 0.886
996 15 0 35 0 1 1 35 7 0 0.783
997 15 0 36 3 0 2 33 7 3 0.633
998 15 0 37 0 1 2 32 7 0 0.664
999 15 0 38 1 1 3 31 7 1 0.758
1000 15 0 39 0 0 0 31 7 1 0.704
1001 15 0 40 3 1 0 31 7 1 0.672
1002 15 0 41 1 0 2 31 7 1 0.593
1003 15 0 42 1 0 3 31 7 1 0.449
1004 15 0 43 3 0 0 33 7 1 1.175
1005 15 0 44 1 1 1 39 7 1 0.774
1006 15 0 45 2 1 2 31 7 0 0.576
1007 15 0 46 2 1 3 33 7 1 1.14
1008 15 0 47 0 0 1 31 7 0 0.613
1009 15 0 48 0 0 0 31 7 0 0.773
1010 15 0 49 0 1 2 33 7 1 0.718
1011 15 0 50 1 1 2 31 7 0 0.622
1012 15 0 51 0 0 1 33 7 0 0.704
1013 15 0 52 1 0 1 32 7 1 0.621
1014 15 0 53 1 0 1 31 7 1 0.572
1015 15 0 54 1 0 3 31 7 2 0.701
1016 15 0 55 2 1 1 34 7 0 0.749
1017 15 0 56 1 1 3 31 7 0 0.716
1018 15 0 57 2 0 1 33 7 1 0.715
1019 15 0 58 0 0 3 35 7 0 0.891
1020 15 0 59 2 1 0 31 7 3 0.993
1021 15 0 60 2 0 1 33 7 1 0.919
1022 15 0 61 0 1 3 32 7 0 0.911
1023 15 0 62 2 1 0 32 7 0 0.932
1024 15 0 63 0 0 3 32 7 0 0.62
1025 15 1 64 0 1 1 31 7 0 2.478
1026 15 1 65 0 1 3 31 7 0 0.779
1027 15 1 66 1 0 3 32 7 2 0.724
1028 15 1 67 1 0 3 33 7 1 0.819
1029 15 1 68 2 0 3 31 7 2 0.524
1030 15 1 69 0 0 3 40 7 0 0.446
1031 15 1 70 1 1 1 32 7 1 0.883
1032 15 1 71 2 0 1 34 7 1 0.569
1033 15 1 72 0 1 1 31 7 0 0.829
1034 15 1 73 1 1 3 31 7 0 0.742
1035 15 1 74 3 0 0 31 7 2 0.66
1036 15 1 75 0 1 0 32 7 0 1.35
1037 15 1 76 3 0 2 32 7 3 0.811
1038 15 1 77 0 0 3 32 7 2 0.947
1039 15 1 78 0 1 0 31 7 1 0.891
1040 15 1 79 1 0 1 43 7 1 0.66
1041 15 1 80 2 0 1 32 7 0 0.69
1042 15 1 81 3 0 3 32 7 3 0.594
1043 15 1 82 1 1 0 31 7 2 0.739
1044 15 1 83 2 1 3 31 7 2 0.737
1045 15 1 84 2 1 0 31 7 0 1.468
1046 15 1 85 1 0 0 33 7 2 0.783
1047 15 1 86 1 0 3 31 7 1 0.812
1048 15 1 87 1 0 3 35 7 1 0.501
1049 15 1 88 0 0 2 31 7 3 0.681
1050 15 1 89 0 1 1 33 7 0 0.505
1051 15 1 90 2 1 1 32 7 0 0.589
1052 15 1 91 2 0 2 38 7 2 0.817
1053 15 1 92 0 0 2 31 7 2 0.697
1054 15 1 93 2 0 0 35 7 1 0.601
1055 15 1 94 0 1 2 34 7 3 0.685
1056 15 1 95 3 1 1 33 7 0 0.525
1057 15 1 96 3 0 2 31 7 3 0.724
1058 15 1 97 0 1 0 31 7 1 2.031
1059 15 1 98 0 1 3 32 7 0 0.656
1060 15 1 99 1 1 0 37 7 0 0.974
1061 15 1 100 0 1 1 32 7 2 1.172
1062 15 1 101 1 1 2 32 7 3 0.787
1063 15 1 102 2 1 0 31 7 2 0.734
1064 15 1 103 3 1 1 34 7 3 0.777
1065 15 1 104 0 0 0 37 7 0 0.611
1066 15 1 105 1 0 3 34 7 1 0.626
1067 15 1 106 2 0 0 31 7 1 0.705
1068 15 1 107 3 0 3 32 7 3 0.497
1069 15 1 108 1 0 2 35 7 1 0.773
1070 15 1 109 3 0 1 31 7 1 0.751
1071 15 1 110 1 0 1 31 7 0 0.525
1072 15 1 111 1 1 2 32 7 0 0.74
1073 15 1 112 0 1 3 33 7 3 0.578
1074 15 1 113 1 1 3 31 7 0 0.663
1075 15 1 114 2 0 0 32 7 1 0.568
1076 15 1 115 3 1 3 33 7 3 0.541
1077 15 1 116 1 1 0 31 7 3 0.703
1078 15 1 117 3 1 1 32 7 2 0.639
1079 15 1 118 2 0 3 33 7 2 0.657
1080 16 0 0 3 0 0 32 7 3 1.116
1081 15 1 119 3 0 1 32 7 3 0.719
1082 16 0 1 0 0 2 31 7 0 1.09
1083 15 1 120 1 1 3 31 7 2 0.699
1084 16 0 2 0 1 1 33 7 0 0.921
1085 15 1 121 2 1 0 31 7 2 0.683
1086 16 0 3 3 1 2 31 7 0 0.878
1087 15 1 122 1 1 1 31 7 3 0.552
1088 16 0 4 2 0 0 32 7 1 0.88
1089 15 1 123 3 1 3 31 7 3 0.621
1090 16 0 5 2 1 1 31 7 2 1.28
1091 15 1 124 0 0 1 33 7 1 0.716
1092 15 1 125 1 0 0 36 7 1 0.668
1093 16 0 6 0 0 3 40 7 0 1.081
1094 15 1 126 3 1 3 31 7 0 1.018
1095 16 0 7 2 1 1 33 7 0 1.569
1096 15 1 127 3 0 3 39 7 3 0.511
1097 16 0 8 1 0 3 33 7 1 0.754
1098 15 2 128 0 1 0 35 7 1 0.613
1099 16 0 9 1 1 0 33 7 1 1.237
1100 15 2 129 3 0 2 33 7 3 0.568
1101 16 0 10 2 1 1 31 7 2 0.855
1102 15 2 130 0 0 2 34 7 1 0.634
1103 16 0 11 0 0 1 32 7 2 0.91
1104 15 2 131 0 1 0 31 7 1 0.813
1105 16 0 12 1 1 2 35 7 0 1.216
1106 15 2 132 2 1 3 32 7 2 1.417
1107 16 0 13 0 0 1 31 7 0 1.55
1108 15 2 133 2 1 2 37 7 0 0.795
1109 16 0 14 2 0 2 34 7 1 1.188
1110 15 2 134 2 0 1 31 7 1 0.568
1111 15 2 135 2 0 2 31 7 1 0.573
1112 15 2 136 1 0 1 37 7 1 0.402
1113 15 2 137 2 1 2 39 7 2 0.713
1114 16 0 15 3 1 2 31 7 2 5.843
1115 15 2 138 1 1 0 34 7 1 0.613
1116 16 0 16 1 1 1 31 7 1 0.884
1117 15 2 139 0 0 0 31 7 0 0.629
1118 16 0 17 3 1 3 32 7 0 0.834
1119 15 2 140 0 0 3 31 7 1 0.548
1120 16 0 18 1 1 0 32 7 1 0.742
1121 15 2 141 3 0 1 34 7 1 0.522
1122 16 0 19 3 0 1 31 7 3 1.009
1123 15 2 142 0 1 3 33 7 2 0.8
1124 16 0 20 2 1 3 31 7 2 0.868
1125 15 2 143 2 0 2 33 7 1 1.245
1126 16 0 21 3 1 0 34 7 3 0.73
1127 15 2 144 3 1 2 32 7 0 0.713
1128 16 0 22 2 0 1 32 7 2 0.671
1129 15 2 145 2 0 2 31 7 1 0.569
1130 15 2 146 0 0 2 32 7 1 0.574
1131 16 0 23 1 0 3 36 7 1 1.485
1132 15 2 147 2 1 0 31 7 1 0.69
1133 16 0 24 2 1 2 33 7 2 0.766
1134 15 2 148 1 1 1 42 7 0 0.851
1135 16 0 25 2 1 0 31 7 0 1.369
1136 15 2 149 0 0 1 34 7 3 1.102
1137 16 0 26 2 0 1 32 7 2 0.857
1138 15 2 150 1 1 3 31 7 1 0.639
1139 16 0 27 1 1 2 32 7 1 0.705
1140 15 2 151 0 0 0 31 7 0 0.718
1141 16 0 28 3 1 1 32 7 3 0.725
1142 15 2 152 3 0 1 32 7 1 1.29
1143 16 0 29 0 1 2 32 7 0 0.842
1144 15 2 153 2 1 1 31 7 2 0.645
1145 16 0 30 2 0 0 32 7 2 0.746
1146 15 2 154 1 0 2 31 7 2 0.611
1147 16 0 31 2 1 1 32 7 2 0.693
1148 15 2 155 0 1 0 32 7 3 0.599
1149 16 0 32 0 0 1 31 7 1 0.715
1150 15 2 156 0 0 0 32 7 0 0.539
1151 16 0 33 1 0 0 31 7 1 0.763
1152 15 2 157 0 1 2 31 7 0 0.653
1153 16 0 34 3 1 2 31 7 3 0.838
1154 15 2 158 3 0 1 31 7 0 1.147
1155 16 0 35 1 1 1 31 7 2 0.662
1156 15 2 159 1 0 1 32 7 1 1.003
1157 16 0 36 3 1 1 36 7 3 0.664
1158 15 2 160 1 1 3 33 7 3 0.957
1159 16 0 37 1 0 3 32 7 1 0.759
1160 15 2 161 2 0 3 35 7 2 0.66
1161 16 0 38 2 0 3 37 7 1 0.538
1162 15 2 162 2 0 3 31 7 2 0.594
1163 16 0 39 0 1 3 32 7 2 0.704
1164 15 2 163 0 0 1 34 7 0 0.738
1165 16 0 40 0 0 0 31 7 2 2.168
1166 15 2 164 1 1 1 31 7 0 1.117
1167 16 0 41 2 1 2 35 7 1 0.861
1168 15 2 165 3 1 2 34 7 0 0.878
1169 16 0 42 0 1 3 31 7 0 0.752
1170 15 2 166 2 0 2 34 7 2 0.968
1171 16 0 43 3 0 2 31 7 3 1.427
1172 15 2 167 1 0 1 33 7 2 0.57
1173 16 0 44 0 1 3 32 7 3 0.774
1174 15 2 168 1 0 0 31 7 1 0.735
1175 16 0 45 0 0 0 31 7 0 1.14
1176 15 2 169 0 0 1 32 7 1 0.89
1177 16 0 46 0 1 2 31 7 0 0.721
1178 15 2 170 2 0 0 32 7 1 0.755
1179 15 2 171 1 1 1 32 7 2 0.689
1180 16 0 47 2 0 2 32 7 0 1.709
1181 15 2 172 2 1 2 33 7 0 0.722
1182 16 0 48 1 1 3 31 7 1 1.162
1183 15 2 173 3 0 2 31 7 2 0.753
1184 16 0 49 1 0 2 36 7 0 0.487
1185 15 2 174 3 1 3 32 7 1 1.311
1186 16 0 50 1 0 3 40 7 1 0.535
1187 15 2 175 0 1 3 32 7 1 0.761
1188 16 0 51 0 0 3 31 7 0 0.546
1189 15 2 176 1 0 1 31 7 1 0.735
1190 16 0 52 3 0 0 31 7 3 1.319
1191 15 2 177 3 0 1 31 7 1 0.602
1192 16 0 53 1 1 2 37 7 1 0.798
1193 15 2 178 3 1 1 36 7 2 1.021
1194 16 0 54 3 0 0 37 7 3 0.904
1195 15 2 179 2 1 3 33 7 0 0.882
1196 16 0 55 3 0 2 32 7 2 0.797
1197 15 2 180 3 1 0 31 7 1 0.731
1198 16 0 56 0 0 2 32 7 0 0.562
1199 15 2 181 2 1 0 33 7 2 0.523
1200 16 0 57 2 1 0 34 7 2 1.276
1201 15 2 182 2 0 0 38 7 2 0.525
1202 16 0 58 3 1 2 32 7 1 1.029
1203 15 2 183 1 1 0 33 7 3 0.816
1204 16 0 59 2 1 2 32 7 1 1.01
1205 15 2 184 3 0 2 33 7 3 0.652
1206 16 0 60 2 0 0 31 7 1 0.568
1207 15 2 185 0 0 0 33 7 0 0.666
1208 16 0 61 3 0 3 34 7 3 0.797
1209 15 2 186 2 1 0 35 7 0 0.712
1210 16 0 62 1 1 0 33 7 1 1.186
1211 15 2 187 3 1 0 32 7 3 1.016
1212 15 2 188 0 0 3 33 7 1 0.857
1213 16 0 63 3 1 2 31 7 3 0.949
1214 15 2 189 0 0 3 32 7 1 0.804
1215 15 2 190 2 0 0 31 7 0 0.72
1216 15 2 191 3 0 3 33 7 1 0.751
1217 15 3 192 3 0 2 31 7 0 1.972
1218 15 3 193 3 0 3 32 7 1 0.742
1219 15 3 194 3 1 1 32 7 2 0.853
1220 16 1 64 0 0 2 31 7 0 1.12
1221 15 3 195 0 1 2 31 7 0 0.559
1222 16 1 65 0 0 3 32 7 0 0.478
1223 15 3 196 1 0 2 35 7 1 0.673
1224 16 1 66 2 1 3 32 7 1 0.675
1225 15 3 197 0 1 3 33 7 2 0.942
1226 16 1 67 3 1 0 35 7 3 0.908
1227 15 3 198 0 0 1 34 7 1 0.95
1228 16 1 68 2 0 1 36 7 2 0.994
1229 15 3 199 3 1 1 31 7 0 0.503
1230 16 1 69 0 0 2 32 7 0 0.861
1231 15 3 200 3 0 0 31 7 1 0.734
1232 16 1 70 2 1 2 31 7 2 0.724
1233 15 3 201 0 1 0 31 7 2 0.829
1234 16 1 71 0 0 1 36 7 2 1.184
1235 15 3 202 1 1 3 33 7 2 0.664
1236 16 1 72 0 0 1 32 7 0 0.567
1237 15 3 203 1 1 2 39 7 2 0.538
1238 16 1 73 1 0 3 32 7 1 0.474
1239 15 3 204 2 1 3 36 7 2 0.607
1240 15 3 205 2 1 1 34 7 0 0.591
1241 16 1 74 3 1 3 31 7 2 0.935
1242 15 3 206 1 1 1 31 7 1 0.771
1243 16 1 75 3 0 1 34 7 3 0.791
1244 15 3 207 2 0 0 31 7 1 0.525
1245 16 1 76 1 1 2 32 7 1 0.777
1246 15 3 208 3 0 1 39 7 0 0.691
1247 16 1 77 0 0 2 34 7 0 0.603
1248 15 3 209 0 1 3 33 7 3 0.532
1249 16 1 78 1 1 3 33 7 2 0.723
1250 15 3 210 2 1 3 32 7 2 0.746
1251 16 1 79 1 1 2 32 7 1 0.787
1252 15 3 211 1 0 0 32 7 1 0.741
1253 16 1 80 3 1 1 31 7 3 0.837
1254 15 3 212 1 0 2 34 7 1 0.784
1255 16 1 81 2 1 2 31 7 2 0.703
1256 15 3 213 1 1 0 32 7 2 0.761
1257 16 1 82 1 0 0 32 7 1 0.692
1258 15 3 214 2 0 1 31 7 1 0.695
1259 16 1 83 3 0 2 31 7 3 0.769
1260 15 3 215 0 1 1 42 7 0 0.536
1261 16 1 84 0 1 0 32 7 0 0.723
1262 15 3 216 2 1 2 32 7 2 0.986
1263 16 1 85 3 1 0 34 7 3 1.2
1264 15 3 217 0 0 2 36 7 0 0.524
1265 16 1 86 2 0 1 34 7 2 0.699
1266 15 3 218 2 1 1 33 7 1 0.703
1267 16 1 87 0 0 3 31 7 0 0.76
1268 15 3 219 3 0 3 31 7 3 0.767
1269 16 1 88 2 1 3 36 7 2 0.819
1270 15 3 220 1 1 0 31 7 2 0.985
1271 16 1 89 3 1 3 31 7 3 0.732
1272 15 3 221 1 1 2 32 7 2 0.735
1273 16 1 90 1 0 0 31 7 1 0.703
1274 15 3 222 3 1 1 32 7 1 0.83
1275 16 1 91 2 1 1 31 7 1 0.787
1276 15 3 223 1 0 0 31 7 2 0.809
1277 15 3 224 2 0 1 36 7 1 0.486
1278 16 1 92 1 1 0 32 7 1 0.752
1279 15 3 225 0 0 2 31 7 0 0.43
1280 16 1 93 0 1 2 37 7 1 0.763
1281 15 3 226 1 1 2 35 7 1 0.708
1282 16 1 94 2 0 3 32 7 2 0.761
1283 15 3 227 0 0 3 38 7 0 0.608
1284 16 1 95 0 1 2 33 7 1 0.756
1285 15 3 228 1 0 2 31 7 1 0.527
1286 16 1 96 1 0 0 39 7 1 1.015
1287 15 3 229 3 1 3 34 7 3 0.689
1288 16 1 97 1 0 1 33 7 1 0.521
1289 15 3 230 3 1 1 33 7 2 0.734
1290 16 1 98 1 1 0 31 7 2 0.676
1291 15 3 231 3 1 0 34 7 1 0.781
1292 16 1 99 1 0 2 31 7 2 0.942
1293 16 1 100 1 1 0 31 7 1 0.71
1294 15 3 232 1 1 2 32 7 2 1.499
1295 16 1 101 3 0 0 33 7 3 0.691
1296 15 3 233 2 0 3 31 7 2 0.815
1297 15 3 234 2 1 2 32 7 1 0.647
1298 16 1 102 1 1 1 32 7 1 1.048
1299 15 3 235 2 0 3 35 7 0 0.473
1300 16 1 103 0 1 1 33 7 1 0.801
1301 15 3 236 0 0 3 31 7 0 0.529
1302 16 1 104 2 0 2 31 7 1 0.526
1303 15 3 237 2 1 0 33 7 1 0.948
1304 16 1 105 2 1 0 36 7 2 0.893
1305 15 3 238 0 0 3 34 7 0 0.571
1306 16 1 106 2 1 0 31 7 2 0.387
1307 16 1 107 1 1 1 44 7 1 0.731
1308 15 3 239 3 1 0 36 7 1 1.084
1309 16 1 108 0 0 3 31 7 3 0.903
1310 15 3 240 2 0 2 31 7 2 0.686
1311 15 3 241 0 1 1 32 7 3 0.571
1312 16 1 109 2 0 0 35 7 2 0.736
1313 15 3 242 3 1 0 34 7 3 0.559
1314 16 1 110 0 1 2 33 7 1 1.1
1315 15 3 243 3 1 0 36 7 1 0.641
1316 16 1 111 1 1 1 43 7 1 0.502
1317 15 3 244 0 1 2 31 7 1 1.251
1318 16 1 112 3 1 0 37 7 3 0.698
1319 15 3 245 1 0 3 33 7 0 0.415
1320 16 1 113 2 1 0 32 7 2 1.095
1321 15 3 246 2 0 2 41 7 1 0.778
1322 16 1 114 0 0 1 34 7 3 0.974
1323 15 3 247 1 0 0 32 7 1 0.711
1324 16 1 115 2 0 0 33 7 2 0.781
1325 15 3 248 0 1 2 39 7 2 0.451
1326 16 1 116 3 1 1 37 7 3 1.047
1327 15 3 249 1 0 1 35 7 3 0.525
1328 15 3 250 0 0 0 32 7 0 0.291
1329 16 1 117 1 1 3 36 7 1 0.744
1330 15 3 251 1 0 0 31 7 1 0.19
1331 16 1 118 2 0 1 34 7 2 0.692
1332 15 3 252 3 0 1 31 7 0 0.061
1333 16 1 119 0 1 0 33 7 0 0.593
1334 15 3 253 1 0 0 32 7 1 0.612
1335 16 1 120 1 1 3 31 7 1 0.81
1336 15 3 254 0 0 1 31 7 0 0.179
1337 15 3 255 0 1 0 32 7 0 0.226
1338 16 1 121 3 0 1 35 7 3 0.892
1339 16 1 122 2 1 1 31 7 2 0.826
1340 15 4 256 2 1 1 31 7 0 0.164
1341 16 1 123 3 0 2 34 7 3 0.65
1342 15 4 257 2 1 1 32 7 2 0.487
1343 15 4 258 1 1 1 32 7 1 0.315
1344 16 1 124 3 1 0 32 7 3 0.601
1345 15 4 259 3 1 1 32 7 0 0.71
1346 16 1 125 1 0 1 35 7 1 0.833
1347 15 4 260 2 1 2 31 7 1 0.845
1348 16 1 126 2 1 0 31 7 2 0.737
1349 15 4 261 2 1 1 31 7 2 0.552
1350 16 1 127 0 1 1 32 7 0 0.757
1351 15 4 262 3 0 3 34 7 3 0.889
1352 16 2 128 0 1 3 32 7 0 0.621
1353 15 4 263 3 1 2 31 7 1 0.687
1354 16 2 129 0 0 3 33 7 0 0.469
1355 15 4 264 2 0 1 34 7 2 0.463
1356 16 2 130 3 0 1 33 7 3 0.69
1357 15 4 265 2 1 3 32 7 1 0.548
1358 16 2 131 3 1 3 37 7 3 1.04
1359 15 4 266 2 0 3 32 7 1 0.986
1360 16 2 132 0 0 0 33 7 0 0.8
1361 15 4 267 2 1 2 31 7 1 0.672
1362 16 2 133 0 0 3 31 7 0 0.626
1363 15 4 268 1 1 3 33 7 1 0.545
1364 16 2 134 1 1 1 31 7 1 0.721
1365 15 4 269 2 1 0 35 7 2 0.515
1366 16 2 135 2 1 1 45 7 1 0.83
1367 15 4 270 1 0 1 34 7 1 0.55
1368 15 4 271 1 1 0 34 7 2 0.518
1369 16 2 136 0 1 1 32 7 0 0.663
1370 16 2 137 0 0 1 32 7 0 0.621
1371 15 4 272 2 0 0 31 7 1 1.229
1372 15 4 273 2 0 2 33 7 2 0.266
1373 16 2 138 1 0 1 35 7 1 0.901
1374 15 4 274 1 0 3 32 7 1 0.615
1375 16 2 139 3 1 0 35 7 3 1.171
1376 15 4 275 2 1 2 32 7 3 0.87
1377 16 2 140 1 1 3 34 7 2 0.871
1378 15 4 276 0 0 0 34 7 1 0.592
1379 16 2 141 1 0 0 31 7 1 0.642
1380 15 4 277 0 1 2 32 7 3 1.7
1381 16 2 142 1 1 0 33 7 1 0.72
1382 15 4 278 0 1 1 32 7 0 0.352
1383 16 2 143 0 1 2 36 7 0 0.772
1384 15 4 279 1 1 3 34 7 1 0.473
1385 16 2 144 0 1 0 32 7 0 0.479
1386 16 2 145 0 0 1 32 7 0 0.436
1387 15 4 280 1 1 0 31 7 1 0.941
1388 15 4 281 3 1 1 32 7 2 0.577
1389 16 2 146 1 0 0 33 7 1 0.626
1390 15 4 282 2 0 0 33 7 2 0.694
1391 16 2 147 2 1 2 31 7 0 1.074
1392 15 4 283 0 1 0 32 7 3 0.819
1393 16 2 148 0 0 3 31 7 0 0.381
1394 16 2 149 0 1 0 32 7 0 0.43
1395 15 4 284 0 0 1 31 7 2 0.766
1396 15 4 285 2 1 3 32 7 1 0.412
1397 16 2 150 0 0 0 35 7 1 0.917
1398 15 4 286 3 1 2 32 7 3 0.23
1399 16 2 151 3 0 3 32 7 3 0.933
1400 15 4 287 0 1 1 32 7 1 0.035
1401 15 4 288 3 0 1 33 7 2 0.012
1402 16 2 152 1 0 0 31 7 1 0.762
1403 15 4 289 2 0 0 31 7 1 0.052
1404 16 2 153 3 0 0 33 7 3 0.813
1405 15 4 290 0 1 2 33 7 1 0.796
1406 16 2 154 0 1 3 31 7 0 0.998
1407 15 4 291 3 1 0 32 7 2 0.393
1408 16 2 155 0 0 1 34 7 0 0.481
1409 15 4 292 0 0 2 31 7 0 0.484
1410 16 2 156 3 0 3 31 7 3 0.902
1411 15 4 293 3 0 3 33 7 2 0.808
1412 16 2 157 3 0 3 32 7 3 0.324
1413 15 4 294 3 0 2 31 7 1 0.405
1414 16 2 158 2 1 2 34 7 2 0.83
1415 15 4 295 1 0 0 38 7 1 0.911
1416 16 2 159 3 0 2 34 7 3 0.735
1417 15 4 296 2 1 3 31 7 2 0.596
1418 16 2 160 3 1 0 31 7 3 0.666
1419 15 4 297 3 1 2 31 7 3 0.676
1420 16 2 161 2 0 2 31 7 2 0.809
1421 15 4 298 0 1 3 31 7 0 0.434
1422 16 2 162 1 1 3 31 7 3 0.65
1423 15 4 299 3 1 0 32 7 1 0.728
1424 16 2 163 3 0 0 33 7 3 0.637
1425 15 4 300 3 0 0 37 7 2 0.839
1426 16 2 164 3 0 3 34 7 3 0.54
1427 15 4 301 3 1 3 38 7 1 0.754
1428 16 2 165 3 0 0 35 7 3 0.511
1429 15 4 302 2 0 3 31 7 3 1.312
1430 16 2 166 3 0 2 34 7 3 0.491
1431 15 4 303 3 0 3 44 7 3 0.619
1432 16 2 167 2 0 3 31 7 2 0.815
1433 15 4 304 1 0 2 32 7 1 0.666
1434 16 2 168 2 1 2 32 7 2 0.528
1435 15 4 305 2 0 3 36 7 3 0.888
1436 16 2 169 3 1 1 32 7 2 0.516
1437 15 4 306 3 0 0 33 7 1 0.929
1438 16 2 170 1 0 2 34 7 0 1.155
1439 15 4 307 3 0 1 31 7 2 0.665
1440 16 2 171 3 0 1 33 7 3 1.116
1441 15 4 308 1 1 2 35 7 2 0.683
1442 16 2 172 2 1 0 33 7 2 0.778
1443 15 4 309 1 1 2 32 7 2 0.572
1444 16 2 173 0 0 2 31 7 2 0.42
1445 15 4 310 3 1 3 31 7 3 0.704
1446 16 2 174 0 0 0 31 7 0 1.239
1447 15 4 311 1 1 2 32 7 2 0.604
1448 15 4 312 3 1 3 31 7 1 0.416
1449 16 2 175 1 1 2 31 7 1 0.736
1450 15 4 313 3 0 3 34 7 2 0.714
1451 16 2 176 2 0 3 40 7 2 0.812
1452 15 4 314 0 1 1 31 7 1 0.474
1453 16 2 177 2 0 3 33 7 2 0.501
1454 15 4 315 3 1 2 34 7 3 0.482
1455 16 2 178 2 0 0 31 7 2 0.57
1456 15 4 316 2 1 1 35 7 1 0.839
1457 16 2 179 2 1 3 33 7 2 0.515
1458 15 4 317 3 1 2 36 7 0 0.274
1459 16 2 180 3 0 1 33 7 3 0.855
1460 15 4 318 0 0 2 31 7 1 0.497
1461 16 2 181 2 1 3 33 7 3 0.935
1462 15 4 319 2 0 3 31 7 2 0.536
1463 16 2 182 3 1 3 31 7 3 1.343
1464 16 2 183 3 1 2 32 7 0 2.437
1465 16 2 184 0 1 1 31 7 0 0.879
1466 16 2 185 2 0 2 31 7 0 0.534
1467 16 2 186 1 1 1 33 7 1 0.749
1468 16 2 187 0 0 1 31 7 0 0.801
1469 16 2 188 3 1 3 32 7 1 3.002
1470 16 2 189 1 1 2 33 7 1 0.568
1471 16 2 190 1 1 0 32 7 1 0.594
1472 16 2 191 3 0 0 37 7 3 0.907
1473 16 3 192 1 0 3 31 7 1 1.11
1474 16 3 193 2 0 1 32 7 2 0.764
1475 16 3 194 3 0 1 34 7 3 0.917
1476 16 3 195 3 0 2 31 7 3 0.418
1477 16 3 196 0 1 1 31 7 0 1.033
1478 16 3 197 1 0 1 37 7 1 0.65
1479 16 3 198 2 0 2 32 7 2 0.785
1480 16 3 199 1 0 1 33 7 1 0.683
1481 16 3 200 1 0 1 31 7 1 0.489
1482 16 3 201 3 0 3 35 7 3 1.238
1483 16 3 202 1 0 0 32 7 1 0.672
1484 16 3 203 0 1 0 31 7 2 1.166
1485 16 3 204 2 0 3 31 7 2 1.086
1486 16 3 205 0 1 2 31 7 3 0.853
1487 16 3 206 3 1 1 31 7 3 0.688
1488 16 3 207 2 1 0 32 7 2 0.781
1489 16 3 208 1 1 3 33 7 2 0.704
1490 16 3 209 2 0 0 35 7 2 0.688
1491 16 3 210 1 1 0 34 7 1 0.822
1492 16 3 211 0 0 0 37 7 0 0.686
1493 16 3 212 2 0 1 31 7 1 0.612
1494 16 3 213 3 0 0 32 7 3 0.816
1495 16 3 214 2 1 3 36 7 2 0.905
1496 16 3 215 2 0 2 31 7 3 0.775
1497 16 3 216 3 1 3 40 7 3 1.237
1498 16 3 217 1 1 1 31 7 1 0.894
1499 16 3 218 3 0 2 38 7 3 0.757
1500 16 3 219 0 1 3 31 7 0 0.823
1501 16 3 220 0 1 0 34 7 0 0.84
1502 16 3 221 2 0 0 32 7 2 0.696
1503 16 3 222 3 1 3 32 7 3 0.774
1504 16 3 223 2 0 3 33 7 2 0.752
1505 16 3 224 2 0 2 33 7 2 0.723
1506 16 3 225 1 0 2 31 7 1 0.735
1507 16 3 226 2 0 3 34 7 2 0.627
1508 16 3 227 1 1 1 37 7 1 0.691
1509 16 3 228 1 0 1 33 7 0 0.648
1510 16 3 229 3 1 3 31 7 3 0.687
1511 16 3 230 2 0 2 31 7 2 0.66
1512 16 3 231 3 0 2 31 7 3 0.619
1513 16 3 232 2 1 1 31 7 1 0.851
1514 16 3 233 3 1 1 33 7 3 0.869
1515 16 3 234 0 0 3 36 7 1 0.819
1516 16 3 235 0 1 1 31 7 1 0.872
1517 16 3 236 1 0 3 35 7 1 0.77
1518 16 3 237 1 0 3 31 7 1 1.356
1519 16 3 238 1 1 2 35 7 1 0.69
1520 16 3 239 1 1 3 40 7 1 0.655
1521 16 3 240 3 0 3 33 7 3 0.702
1522 16 3 241 3 1 2 33 7 3 0.643
1523 16 3 242 0 0 3 35 7 0 0.738
1524 16 3 243 1 0 0 35 7 1 0.622
1525 16 3 244 0 1 1 31 7 1 0.733
1526 16 3 245 3 1 2 32 7 3 0.797
1527 16 3 246 3 1 1 35 7 3 0.367
1528 16 3 247 0 1 0 34 7 0 0.704
1529 16 3 248 1 1 3 37 7 2 0.797
1530 16 3 249 3 1 2 31 7 3 0.626
1531 16 3 250 1 1 2 33 7 1 0.714
1532 16 3 251 0 0 0 31 7 0 0.735
1533 16 3 252 3 0 1 35 7 3 1.355
1534 16 3 253 2 1 2 32 7 2 0.704
1535 16 3 254 3 1 1 32 7 3 0.573
1536 16 3 255 2 0 3 32 7 0 0.903
1537 16 4 256 2 1 1 31 7 2 0.755
1538 16 4 257 1 0 1 31 7 1 0.726
1539 16 4 258 3 1 3 35 7 2 0.986
1540 16 4 259 1 1 0 31 7 1 0.656
1541 16 4 260 2 0 0 32 7 2 0.623
1542 16 4 261 2 1 1 32 7 2 0.391
1543 16 4 262 1 1 2 31 7 1 0.655
1544 16 4 263 3 0 2 31 7 1 0.589
1545 16 4 264 0 0 0 31 7 2 0.698
1546 16 4 265 0 1 2 37 7 0 0.755
1547 16 4 266 2 1 3 34 7 2 0.87
1548 16 4 267 2 0 3 35 7 1 0.653
1549 16 4 268 0 0 0 31 7 0 0.615
1550 16 4 269 2 0 1 31 7 2 0.663
1551 16 4 270 1 0 0 31 7 1 0.795
1552 16 4 271 2 1 2 34 7 2 0.669
1553 16 4 272 2 0 1 32 7 2 1.163
1554 16 4 273 0 1 3 36 7 2 0.704
1555 16 4 274 1 0 1 33 7 0 1.345
1556 16 4 275 1 0 2 31 7 1 0.65
1557 16 4 276 1 1 3 36 7 2 1.825
1558 16 4 277 2 0 1 32 7 2 0.881
1559 16 4 278 2 1 3 31 7 2 0.832
