datID sessionID block trial target cue location forePeriod targetTime resp rt
1 4 0 0 3 1 1 31 7 0 0.467
2 4 0 1 0 0 3 31 7 0 0.403
3 4 0 2 3 1 2 31 7 3 0.539
4 4 0 3 3 1 3 34 7 3 0.422
5 4 0 4 2 1 2 33 7 0 0.669
6 4 0 5 1 1 2 32 7 1 0.382
7 4 0 6 2 1 3 35 7 2 0.518
8 4 0 7 2 0 0 31 7 0 0.409
9 4 0 8 0 1 0 31 7 0 0.42
10 4 0 9 2 1 3 35 7 2 0.402
11 4 0 10 0 1 3 32 7 0 0.378
12 4 0 11 1 1 1 33 7 0 0.811
13 4 0 12 2 1 1 31 7 0 0.447
14 4 0 13 1 0 2 31 7 1 0.335
15 4 0 14 2 1 3 32 7 2 0.394
16 4 0 15 2 0 1 31 7 2 0.386
17 4 0 16 1 1 0 35 7 0 0.546
18 4 0 17 2 0 1 32 7 2 0.368
19 4 0 18 0 1 3 32 7 0 0.689
20 4 0 19 2 1 3 32 7 2 0.398
21 4 0 20 2 0 3 32 7 2 0.67
22 4 0 21 2 1 2 37 7 1 0.804
23 4 0 22 2 1 3 32 7 2 0.353
24 4 0 23 2 0 1 32 7 2 0.41
25 4 0 24 2 1 1 31 7 2 0.426
26 4 0 25 0 1 1 31 7 0 0.376
27 4 0 26 1 0 0 31 7 1 0.385
28 4 0 27 0 1 1 32 7 2 0.713
29 4 0 28 0 0 0 31 7 0 0.306
30 4 0 29 3 1 0 33 7 0 0.429
31 4 0 30 2 0 2 31 7 2 0.751
32 4 0 31 0 1 1 31 7 0 0.338
33 4 0 32 1 1 1 32 7 1 0.379
34 4 0 33 3 0 0 32 7 1 1.284
35 4 0 34 0 0 3 36 7 0 0.392
36 4 0 35 3 1 3 32 7 0 0.448
37 4 0 36 2 0 3 32 7 2 1.29
38 4 0 37 0 1 0 32 7 0 0.498
39 4 0 38 0 1 3 32 7 2 0.918
40 4 0 39 3 0 0 31 7 1 0.679
41 4 0 40 2 0 2 32 7 1 0.456
42 4 0 41 3 1 2 31 7 0 0.458
43 4 0 42 0 1 0 31 7 0 0.403
44 4 0 43 1 1 1 40 7 1 0.322
45 4 0 44 1 0 0 31 7 0 0.429
46 4 0 45 3 0 3 31 7 3 0.398
47 4 0 46 2 0 1 36 7 2 0.342
48 4 0 47 3 1 0 31 7 1 0.656
49 4 0 48 3 0 1 31 7 3 0.41
50 4 0 49 1 0 0 31 7 1 0.311
51 4 0 50 1 0 3 31 7 1 0.362
52 4 0 51 0 0 2 32 7 0 0.304
53 4 0 52 0 0 2 31 7 0 0.427
54 4 0 53 0 0 0 31 7 0 0.41
55 4 0 54 1 0 2 40 7 1 0.313
56 4 0 55 0 0 3 31 7 2 0.684
57 4 0 56 0 0 1 37 7 0 0.317
58 4 0 57 3 1 3 32 7 1 0.536
59 4 0 58 1 0 3 33 7 1 0.286
60 4 0 59 0 0 2 40 7 0 0.536
61 4 0 60 3 1 0 33 7 1 0.419
62 4 0 61 2 0 0 39 7 2 0.438
63 4 0 62 2 0 1 31 7 2 0.491
64 4 0 63 3 0 3 32 7 3 0.479
65 4 1 64 2 0 3 33 7 2 0.417
66 4 1 65 1 1 3 32 7 1 0.384
67 4 1 66 1 1 2 32 7 1 0.505
68 4 1 67 2 1 2 37 7 2 0.541
69 4 1 68 1 0 3 34 7 1 0.36
70 4 1 69 3 0 2 31 7 3 0.585
71 4 1 70 0 0 0 31 7 1 0.585
72 4 1 71 0 0 0 32 7 1 0.446
73 4 1 72 3 1 0 31 7 1 0.487
74 4 1 73 2 1 2 31 7 0 0.775
75 4 1 74 0 0 0 40 7 0 0.858
76 4 1 75 2 0 1 37 7 2 0.578
77 4 1 76 0 1 2 33 7 0 0.411
78 4 1 77 2 0 2 31 7 2 0.419
79 4 1 78 1 1 2 31 7 1 0.658
80 4 1 79 3 0 3 37 7 3 0.369
81 4 1 80 3 0 3 33 7 3 0.409
82 4 1 81 2 1 1 32 7 2 0.769
83 4 1 82 0 1 1 33 7 0 0.411
84 4 1 83 2 1 1 35 7 2 0.571
85 4 1 84 1 0 1 35 7 1 0.364
86 4 1 85 3 0 2 34 7 1 0.422
87 4 1 86 1 0 2 31 7 1 0.256
88 4 1 87 0 0 2 31 7 1 0.581
89 4 1 88 1 1 0 33 7 2 1.586
90 4 1 89 1 1 3 31 7 1 0.45
91 4 1 90 2 0 0 32 7 2 0.352
92 4 1 91 3 1 1 36 7 1 0.465
93 4 1 92 3 0 2 31 7 3 0.387
94 4 1 93 1 0 0 31 7 1 0.371
95 4 1 94 0 0 0 31 7 0 0.275
96 4 1 95 2 0 3 32 7 2 0.272
97 4 1 96 0 0 1 31 7 1 0.276
98 4 1 97 3 0 2 34 7 3 0.524
99 4 1 98 0 0 2 34 7 0 0.367
100 4 1 99 2 1 0 37 7 2 0.84
101 4 1 100 3 1 1 31 7 0 0.464
102 4 1 101 0 0 3 34 7 0 0.242
103 4 1 102 2 1 1 32 7 2 0.727
104 4 1 103 2 1 3 35 7 0 0.411
105 4 1 104 1 0 1 33 7 0 0.462
106 4 1 105 2 1 3 31 7 3 0.848
107 4 1 106 2 1 3 31 7 2 0.355
108 4 1 107 3 0 1 31 7 3 0.437
109 4 1 108 3 1 1 33 7 0 0.427
110 4 1 109 0 1 1 31 7 0 0.421
111 4 1 110 0 1 3 31 7 0 0.812
112 4 1 111 1 1 3 31 7 1 0.437
113 4 1 112 3 1 3 32 7 3 0.379
114 4 1 113 1 0 0 32 7 0 0.539
115 4 1 114 1 1 2 34 7 1 0.57
116 4 1 115 3 1 0 31 7 0 0.443
117 4 1 116 2 1 3 31 7 2 0.428
118 4 1 117 2 0 1 31 7 1 0.954
119 4 1 118 1 0 3 32 7 1 0.338
120 4 1 119 2 0 3 32 7 1 0.275
121 4 1 120 3 1 3 32 7 3 0.379
122 4 1 121 3 0 1 32 7 0 0.364
123 4 1 122 1 1 1 37 7 1 0.681
124 4 1 123 3 1 2 31 7 3 0.447
125 4 1 124 3 0 3 33 7 3 0.445
126 4 1 125 2 0 0 31 7 2 0.491
127 4 1 126 3 1 2 31 7 3 0.591
128 4 1 127 1 1 2 32 7 3 0.576
129 4 2 128 3 0 1 42 7 3 0.44
130 4 2 129 0 1 0 33 7 1 0.558
131 4 2 130 3 1 0 35 7 3 0.476
132 4 2 131 2 1 0 31 7 1 0.801
133 4 2 132 2 0 0 31 7 0 0.446
134 4 2 133 3 0 2 32 7 3 0.432
135 4 2 134 3 0 0 33 7 3 0.654
136 4 2 135 2 0 3 32 7 2 0.508
137 4 2 136 1 1 1 32 7 1 0.536
138 4 2 137 1 0 3 32 7 1 0.299
139 4 2 138 0 0 2 35 7 0 0.316
140 4 2 139 0 1 3 32 7 2 0.631
141 4 2 140 2 0 2 32 7 2 0.371
142 4 2 141 1 0 0 35 7 1 0.276
143 4 2 142 2 0 0 31 7 2 0.616
144 4 2 143 3 1 1 32 7 1 0.544
145 4 2 144 0 1 3 38 7 2 0.574
146 4 2 145 0 0 3 36 7 1 0.42
147 4 2 146 1 1 2 32 7 1 0.342
148 4 2 147 1 1 1 31 7 1 0.384
149 4 2 148 2 0 3 36 7 2 0.473
150 4 2 149 1 1 3 31 7 1 0.374
151 4 2 150 2 1 2 36 7 2 0.462
152 4 2 151 1 0 2 32 7 1 0.548
153 4 2 152 3 1 0 33 7 1 0.573
154 4 2 153 2 0 3 32 7 1 0.41
155 4 2 154 1 1 1 34 7 2 0.443
156 4 2 155 3 1 3 31 7 3 0.477
157 4 2 156 2 0 2 31 7 2 0.697
158 4 2 157 2 0 2 31 7 2 0.319
159 4 2 158 3 1 2 33 7 3 0.465
160 4 2 159 3 1 3 31 7 3 0.439
161 4 2 160 2 0 2 31 7 2 0.597
162 4 2 161 2 1 1 31 7 1 0.662
163 4 2 162 3 1 1 32 7 1 0.528
164 4 2 163 1 1 2 31 7 1 0.399
165 4 2 164 0 1 0 31 7 1 0.623
166 4 2 165 2 0 0 31 7 2 0.387
167 4 2 166 3 1 0 31 7 2 0.504
168 4 2 167 2 0 1 31 7 2 0.4
169 4 2 168 3 1 1 32 7 3 0.488
170 4 2 169 3 0 2 35 7 3 0.373
171 4 2 170 3 0 2 33 7 3 0.349
172 4 2 171 0 1 2 31 7 1 0.647
173 4 2 172 1 1 2 33 7 1 0.306
174 4 2 173 0 0 1 32 7 0 0.333
175 4 2 174 1 0 2 32 7 1 0.326
176 4 2 175 1 1 1 31 7 3 0.744
177 4 2 176 1 0 3 32 7 1 0.327
178 4 2 177 3 0 3 36 7 3 0.402
179 4 2 178 1 0 3 31 7 1 0.25
180 4 2 179 0 1 2 31 7 0 0.343
181 4 2 180 1 0 0 32 7 1 0.393
182 4 2 181 2 1 1 35 7 2 0.312
183 4 2 182 1 1 0 31 7 3 0.659
184 4 2 183 1 1 0 31 7 2 0.485
185 4 2 184 3 1 2 31 7 3 0.389
186 4 2 185 0 0 0 31 7 0 0.309
187 4 2 186 0 1 2 31 7 2 0.833
188 4 2 187 0 0 1 32 7 0 0.301
189 4 2 188 3 0 3 31 7 3 0.441
190 4 2 189 3 0 3 33 7 3 0.68
191 4 2 190 0 0 3 31 7 0 0.397
192 4 2 191 3 1 2 31 7 3 0.534
193 4 3 192 0 0 3 32 7 0 0.418
194 4 3 193 3 1 1 32 7 3 0.401
195 4 3 194 1 0 1 31 7 1 0.241
196 4 3 195 0 0 1 33 7 0 0.311
197 4 3 196 2 0 0 32 7 2 0.426
198 4 3 197 0 0 1 31 7 0 0.312
199 4 3 198 3 1 0 45 7 3 0.444
200 4 3 199 0 1 2 32 7 0 0.298
201 4 3 200 3 1 2 37 7 3 0.334
202 4 3 201 0 1 1 37 7 0 0.744
203 4 3 202 3 1 1 33 7 3 0.347
204 4 3 203 0 0 1 31 7 0 0.277
205 4 3 204 0 0 2 34 7 0 0.242
206 4 3 205 2 1 1 32 7 2 0.447
207 4 3 206 1 1 0 31 7 2 0.357
208 4 3 207 2 1 0 34 7 2 0.458
209 4 3 208 2 1 3 31 7 2 0.304
210 4 3 209 1 0 0 32 7 1 0.347
211 4 3 210 1 0 0 32 7 1 0.381
212 4 3 211 3 1 2 31 7 0 0.462
213 4 3 212 1 0 3 31 7 1 0.335
214 4 3 213 0 0 1 37 7 0 0.305
215 4 3 214 2 1 0 32 7 2 0.46
216 4 3 215 2 0 2 31 7 2 0.33
217 4 3 216 3 0 0 31 7 3 0.525
218 4 3 217 2 0 1 32 7 1 0.216
219 4 3 218 1 1 1 34 7 2 0.426
220 4 3 219 3 0 3 34 7 3 0.44
221 4 3 220 2 0 1 31 7 2 0.414
222 4 3 221 1 1 3 32 7 1 0.422
223 4 3 222 3 1 0 33 7 3 0.477
224 4 3 223 1 0 3 31 7 1 0.338
225 4 3 224 2 1 0 31 7 2 0.452
226 4 3 225 1 0 1 33 7 1 0.297
227 4 3 226 3 0 2 35 7 3 0.645
228 4 3 227 1 0 1 31 7 1 0.276
229 4 3 228 0 0 1 36 7 0 0.368
230 4 3 229 2 1 0 32 7 2 0.497
231 4 3 230 2 1 0 32 7 2 0.422
232 4 3 231 2 1 2 31 7 0 0.893
233 4 3 232 1 0 2 31 7 1 0.294
234 4 3 233 0 1 1 33 7 0 0.377
235 4 3 234 0 1 3 31 7 0 0.369
236 4 3 235 1 1 0 31 7 2 0.618
237 4 3 236 0 1 1 36 7 0 0.501
238 4 3 237 1 0 1 32 7 1 0.537
239 4 3 238 2 1 2 31 7 2 0.524
240 4 3 239 2 0 0 31 7 2 0.487
241 4 3 240 1 1 2 31 7 1 0.716
242 4 3 241 1 1 0 31 7 1 0.329
243 4 3 242 1 1 2 31 7 1 0.347
244 4 3 243 1 0 2 34 7 1 0.244
245 4 3 244 0 1 3 32 7 0 0.393
246 4 3 245 0 1 2 31 7 1 0.641
247 4 3 246 1 0 3 32 7 1 0.34
248 4 3 247 1 1 0 35 7 1 0.358
249 4 3 248 1 0 2 43 7 1 0.423
250 4 3 249 1 0 2 32 7 1 0.262
251 4 3 250 0 0 3 31 7 0 0.363
252 4 3 251 1 0 1 34 7 1 0.332
253 4 3 252 3 1 3 31 7 1 0.471
254 4 3 253 3 1 3 37 7 3 0.48
255 4 3 254 0 1 1 33 7 0 0.277
256 4 3 255 1 1 3 33 7 1 0.385
257 4 4 256 0 1 2 38 7 0 0.423
258 4 4 257 0 1 0 31 7 0 0.454
259 4 4 258 1 0 1 31 7 1 0.323
260 4 4 259 0 0 2 31 7 0 0.742
261 4 4 260 2 0 3 34 7 2 0.434
262 4 4 261 3 1 3 33 7 0 0.504
263 4 4 262 0 1 0 31 7 0 0.456
264 4 4 263 0 1 0 31 7 0 0.31
265 4 4 264 0 1 1 32 7 0 0.354
266 4 4 265 0 0 3 31 7 0 0.403
267 4 4 266 2 1 1 33 7 2 0.338
268 4 4 267 1 1 3 38 7 1 0.34
269 4 4 268 0 1 2 31 7 0 0.414
270 4 4 269 3 0 1 34 7 0 0.397
271 4 4 270 1 1 0 31 7 1 0.345
272 4 4 271 2 1 0 31 7 3 0.619
273 4 4 272 1 1 3 32 7 1 0.334
274 4 4 273 2 1 2 35 7 2 0.337
275 4 4 274 3 0 1 33 7 0 0.787
276 4 4 275 1 0 1 31 7 1 0.368
277 4 4 276 0 1 0 32 7 0 0.425
278 4 4 277 2 0 0 32 7 1 0.776
279 4 4 278 0 0 0 31 7 0 0.574
280 4 4 279 1 1 0 37 7 1 0.383
281 4 4 280 0 0 3 31 7 0 0.376
282 4 4 281 3 0 0 31 7 3 0.465
283 4 4 282 1 0 2 31 7 1 0.294
284 4 4 283 3 0 1 31 7 0 0.394
285 4 4 284 2 1 1 32 7 1 0.526
286 4 4 285 1 0 1 31 7 1 0.333
287 4 4 286 3 0 0 31 7 3 0.591
288 4 4 287 3 0 2 35 7 3 0.288
289 4 4 288 3 0 1 35 7 3 0.348
290 4 4 289 2 0 2 35 7 2 0.598
291 4 4 290 0 0 2 31 7 0 0.319
292 4 4 291 3 0 1 34 7 3 0.425
293 4 4 292 3 0 0 33 7 3 0.56
294 4 4 293 0 1 2 33 7 3 0.554
295 4 4 294 2 0 2 32 7 2 0.48
296 4 4 295 1 1 1 37 7 1 0.309
297 4 4 296 3 0 0 31 7 3 0.392
298 4 4 297 3 0 0 31 7 3 0.456
299 4 4 298 0 1 3 31 7 0 0.286
300 4 4 299 2 1 2 32 7 2 0.409
301 4 4 300 1 1 3 31 7 1 0.417
302 4 4 301 0 0 0 31 7 0 0.352
303 4 4 302 2 1 2 38 7 2 0.346
304 4 4 303 2 1 0 31 7 2 0.444
305 4 4 304 3 0 0 31 7 3 0.401
306 4 4 305 3 1 2 34 7 3 0.393
307 4 4 306 3 0 1 31 7 3 0.305
308 4 4 307 2 0 3 31 7 2 0.477
309 4 4 308 0 1 0 31 7 1 0.658
310 4 4 309 1 1 3 31 7 1 0.348
311 4 4 310 3 0 2 36 7 3 0.438
312 4 4 311 1 0 0 31 7 1 0.428
313 4 4 312 2 1 0 32 7 2 0.427
314 4 4 313 0 1 3 31 7 2 0.69
315 4 4 314 0 0 0 35 7 0 0.355
316 4 4 315 3 1 1 37 7 0 0.572
317 4 4 316 0 1 2 33 7 0 0.433
318 4 4 317 0 0 2 33 7 1 0.44
319 4 4 318 3 0 3 34 7 3 0.498
320 4 4 319 0 0 1 33 7 0 0.31
321 6 0 0 2 1 1 35 7 0 0.976
322 6 0 1 0 0 0 37 7 0 0.574
323 6 0 2 2 0 2 34 7 2 1.703
324 6 0 3 0 0 3 32 7 2 0.828
325 6 0 4 0 0 2 32 7 1 0.648
326 6 0 5 0 1 3 31 7 1 1.746
327 6 0 6 2 0 2 35 7 1 0.908
328 6 0 7 2 1 2 32 7 1 0.981
329 6 0 8 2 0 2 31 7 2 0.779
330 6 0 9 1 0 1 33 7 1 1.421
331 6 0 10 2 0 0 33 7 1 0.639
332 6 0 11 3 1 2 32 7 1 1.085
333 6 0 12 1 0 0 35 7 1 0.927
334 6 0 13 0 1 1 33 7 1 1.979
335 6 0 14 1 0 1 32 7 1 1.101
336 6 0 15 0 1 3 32 7 3 2.027
337 6 0 16 3 1 1 33 7 1 0.803
338 6 0 17 1 1 1 31 7 1 0.872
339 6 0 18 3 1 0 32 7 2 1.013
340 6 0 19 1 1 2 32 7 1 0.826
341 6 0 20 0 1 2 33 7 1 1.194
342 6 0 21 2 1 0 32 7 1 0.785
343 6 0 22 3 0 0 37 7 2 0.829
344 6 0 23 1 1 3 32 7 2 2.273
345 6 0 24 1 1 0 32 7 1 0.921
346 6 0 25 2 0 1 31 7 2 1.485
347 6 0 26 3 1 2 33 7 3 1.686
348 6 0 27 2 0 3 31 7 2 0.799
349 6 0 28 1 0 0 32 7 1 0.632
350 6 0 29 0 0 2 32 7 3 1.239
351 6 0 30 0 0 1 31 7 1 0.643
352 6 0 31 0 1 3 31 7 0 0.966
353 6 0 32 2 1 0 31 7 1 0.753
354 6 0 33 1 1 2 34 7 2 0.711
355 6 0 34 2 0 1 31 7 1 0.671
356 6 0 35 1 0 0 36 7 1 1.119
357 6 0 36 0 1 2 31 7 3 1.108
358 6 0 37 3 0 1 35 7 3 0.75
359 6 0 38 2 0 2 32 7 2 0.793
360 6 0 39 1 0 3 31 7 1 0.65
361 6 0 40 3 1 3 32 7 1 1
362 6 0 41 1 1 0 33 7 2 1.55
363 6 0 42 3 0 2 31 7 3 0.807
364 6 0 43 3 0 2 33 7 3 0.432
365 6 0 44 1 1 0 34 7 2 1.006
366 6 0 45 2 1 1 41 7 0 0.739
367 6 0 46 3 0 2 33 7 3 0.897
368 6 0 47 2 0 1 31 7 1 0.806
369 6 0 48 2 0 2 31 7 2 1.018
370 6 0 49 2 1 3 33 7 3 0.859
371 6 0 50 2 1 2 32 7 2 1.525
372 6 0 51 2 1 2 31 7 2 0.628
373 6 0 52 2 1 3 32 7 2 1.259
374 6 0 53 1 1 1 34 7 1 0.779
375 6 0 54 2 1 1 33 7 2 0.701
376 6 0 55 2 1 3 31 7 2 0.665
377 6 0 56 1 1 2 36 7 1 0.647
378 6 0 57 2 0 2 33 7 2 0.774
379 6 0 58 0 1 3 31 7 3 0.864
380 6 0 59 0 1 2 32 7 2 0.762
381 6 0 60 0 0 1 32 7 0 0.76
382 6 0 61 3 1 3 32 7 3 0.77
383 6 0 62 3 0 2 32 7 2 0.836
384 6 0 63 3 1 3 31 7 2 0.839
385 6 1 64 3 0 2 37 7 2 0.629
386 6 1 65 1 1 0 32 7 1 0.968
387 6 1 66 0 1 2 34 7 3 1.098
388 6 1 67 2 0 3 33 7 2 0.66
389 6 1 68 3 1 3 32 7 3 0.81
390 6 1 69 3 0 0 35 7 3 0.946
391 6 1 70 1 0 0 32 7 1 0.75
392 6 1 71 0 1 3 33 7 3 0.905
393 6 1 72 0 1 2 32 7 1 1.177
394 6 1 73 0 1 3 32 7 3 0.833
395 6 1 74 1 0 3 32 7 0 0.74
396 6 1 75 1 0 1 34 7 2 1.035
397 6 1 76 2 0 2 31 7 1 0.823
398 6 1 77 1 1 1 33 7 3 0.922
399 6 1 78 2 1 1 32 7 0 0.485
400 6 1 79 2 0 0 34 7 2 0.965
401 6 1 80 0 1 1 31 7 3 1.183
402 6 1 81 2 1 2 32 7 0 1.19
403 6 1 82 3 1 0 31 7 1 0.837
404 6 1 83 1 1 2 33 7 2 1.047
405 6 1 84 3 0 0 33 7 2 0.929
406 6 1 85 1 1 2 32 7 0 0.569
407 6 1 86 2 1 0 35 7 2 0.678
408 6 1 87 2 1 0 35 7 2 0.748
409 6 1 88 1 1 2 33 7 1 0.959
410 6 1 89 1 1 3 33 7 2 0.786
411 6 1 90 1 0 3 31 7 2 0.998
412 6 1 91 2 0 0 33 7 1 1.092
413 6 1 92 2 1 2 31 7 2 0.834
414 6 1 93 2 1 0 36 7 1 1.722
415 6 1 94 3 0 0 35 7 2 0.613
416 6 1 95 1 1 3 32 7 3 0.568
417 6 1 96 2 0 0 32 7 2 0.941
418 6 1 97 2 1 3 35 7 2 0.944
419 6 1 98 2 0 1 33 7 2 0.836
420 6 1 99 3 1 0 31 7 1 1.18
421 6 1 100 3 1 2 33 7 2 1.379
422 6 1 101 2 0 3 35 7 2 0.843
423 6 1 102 1 0 1 32 7 1 0.882
424 6 1 103 3 0 1 31 7 3 0.744
425 6 1 104 1 0 2 38 7 2 1.491
426 6 1 105 0 0 2 31 7 0 0.655
427 6 1 106 2 1 1 33 7 2 0.933
428 6 1 107 2 1 1 40 7 2 0.753
429 6 1 108 0 0 3 32 7 1 0.764
430 6 1 109 1 1 3 33 7 2 0.826
431 6 1 110 3 0 1 33 7 3 0.901
432 6 1 111 0 0 1 32 7 2 0.834
433 6 1 112 0 1 0 32 7 1 1.077
434 6 1 113 1 0 3 33 7 2 0.847
435 6 1 114 2 0 2 31 7 2 0.738
436 6 1 115 2 1 1 31 7 1 0.868
437 6 1 116 2 0 1 31 7 2 0.83
438 6 1 117 1 0 2 31 7 1 0.582
439 6 1 118 0 0 1 31 7 1 0.823
440 6 1 119 0 0 0 32 7 2 0.763
441 6 1 120 3 0 3 31 7 3 0.569
442 6 1 121 2 1 2 31 7 1 1.314
443 6 1 122 0 0 2 36 7 1 0.812
444 6 1 123 2 1 0 31 7 2 0.104
445 6 1 124 0 0 3 31 7 2 0.554
446 6 1 125 0 0 0 31 7 0 0.687
447 6 1 126 3 0 1 31 7 3 0.764
448 6 1 127 3 0 0 32 7 3 0.717
449 6 2 128 0 1 2 32 7 2 0.941
450 6 2 129 0 0 0 35 7 0 1.061
451 6 2 130 1 0 0 34 7 1 1.109
452 6 2 131 1 1 0 31 7 1 0.594
453 6 2 132 3 1 2 33 7 3 0.851
454 6 2 133 2 1 3 31 7 1 1.05
455 6 2 134 0 1 0 33 7 3 0.877
456 6 2 135 1 0 0 32 7 1 0.663
457 6 2 136 3 1 2 34 7 3 1.597
458 6 2 137 1 1 0 34 7 3 0.817
459 6 2 138 0 1 0 31 7 2 0.629
460 6 2 139 2 0 3 33 7 3 0.952
461 6 2 140 3 0 3 33 7 3 0.679
462 6 2 141 0 0 3 33 7 2 0.844
463 6 2 142 1 1 1 32 7 0 1.575
464 6 2 143 1 1 1 34 7 1 1.536
465 6 2 144 2 0 0 33 7 2 0.791
466 6 2 145 1 0 1 36 7 2 0.72
467 6 2 146 1 1 3 31 7 2 1.095
468 6 2 147 1 1 2 31 7 3 1.449
469 6 2 148 2 0 1 36 7 2 0.79
470 6 2 149 3 0 1 32 7 3 1.119
471 6 2 150 1 0 2 32 7 1 0.757
472 6 2 151 1 0 3 33 7 1 0.703
473 6 2 152 3 0 0 32 7 3 0.875
474 6 2 153 1 1 3 32 7 3 0.872
475 6 2 154 3 1 3 33 7 3 0.666
476 6 2 155 3 1 1 33 7 3 0.664
477 6 2 156 2 1 3 41 7 2 0.75
478 6 2 157 3 1 3 35 7 3 0.569
479 6 2 158 0 1 0 31 7 1 0.882
480 6 2 159 1 1 3 35 7 1 0.747
481 6 2 160 1 0 2 32 7 1 0.63
482 6 2 161 0 1 3 33 7 2 0.726
483 6 2 162 3 1 0 35 7 3 0.693
484 6 2 163 2 0 3 32 7 3 0.722
485 6 2 164 1 1 2 31 7 1 0.897
486 6 2 165 1 1 1 37 7 1 0.806
487 6 2 166 3 1 3 31 7 3 0.727
488 6 2 167 3 0 1 35 7 3 0.739
489 6 2 168 0 1 2 33 7 3 0.582
490 6 2 169 3 1 2 31 7 3 0.554
491 6 2 170 3 1 1 31 7 3 0.58
492 6 2 171 3 1 0 35 7 3 0.637
493 6 2 172 2 0 0 34 7 2 0.731
494 6 2 173 2 1 0 35 7 2 0.607
495 6 2 174 1 1 3 31 7 3 0.639
496 6 2 175 0 1 1 31 7 0 1.329
497 6 2 176 3 1 0 36 7 3 0.662
498 6 2 177 1 0 1 32 7 2 0.634
499 6 2 178 0 1 1 34 7 1 0.588
500 6 2 179 2 1 1 34 7 2 0.688
501 6 2 180 1 0 2 31 7 1 0.669
502 6 2 181 2 0 1 37 7 2 0.715
503 6 2 182 3 0 3 31 7 3 0.735
504 6 2 183 3 1 1 31 7 3 0.986
505 6 2 184 3 0 3 34 7 3 0.724
506 6 2 185 1 1 1 32 7 2 0.791
507 6 2 186 3 0 1 31 7 3 0.588
508 6 2 187 0 0 3 31 7 2 1.157
509 6 2 188 1 0 1 33 7 1 0.604
510 6 2 189 3 0 1 35 7 3 1.132
511 6 2 190 0 0 0 34 7 2 1.681
512 6 2 191 3 1 3 31 7 3 0.87
513 6 3 192 0 0 1 33 7 2 0.749
514 6 3 193 0 0 0 32 7 1 0.732
515 6 3 194 3 1 0 31 7 3 1.747
516 6 3 195 0 1 0 33 7 0 0.689
517 6 3 196 1 0 0 34 7 1 0.646
518 6 3 197 2 0 2 34 7 2 0.829
519 6 3 198 0 0 0 32 7 1 0.742
520 6 3 199 1 0 3 32 7 3 0.732
521 6 3 200 0 0 2 40 7 3 1.651
522 6 3 201 2 0 3 32 7 2 0.809
523 6 3 202 3 0 1 31 7 3 0.61
524 6 3 203 1 0 0 31 7 2 0.762
525 6 3 204 3 0 0 35 7 3 0.545
526 6 3 205 1 0 2 31 7 2 0.755
527 6 3 206 1 0 2 32 7 1 0.649
528 6 3 207 1 1 3 31 7 3 0.735
529 6 3 208 0 0 2 33 7 0 0.765
530 6 3 209 2 0 0 31 7 2 0.768
531 6 3 210 0 1 1 32 7 1 1.034
532 6 3 211 1 0 3 31 7 2 1.022
533 6 3 212 3 0 1 31 7 3 0.578
534 6 3 213 1 0 1 34 7 1 0.651
535 6 3 214 2 1 2 31 7 2 0.809
536 6 3 215 0 0 3 31 7 2 0.73
537 6 3 216 3 1 1 34 7 2 0.881
538 6 3 217 1 1 0 32 7 3 0.659
539 6 3 218 3 1 2 33 7 0 0.436
540 6 3 219 0 0 2 37 7 1 0.062
541 6 3 220 3 0 0 37 7 3 0.772
542 6 3 221 0 0 1 33 7 0 0.926
543 6 3 222 1 0 0 31 7 3 1.099
544 6 3 223 1 1 3 32 7 2 0.836
545 6 3 224 1 0 3 32 7 1 0.68
546 6 3 225 2 1 2 32 7 1 0.853
547 6 3 226 0 0 0 31 7 3 0.967
548 6 3 227 1 0 3 35 7 2 1.534
549 6 3 228 0 0 3 33 7 1 0.536
550 6 3 229 2 1 1 31 7 1 0.565
551 6 3 230 3 1 2 32 7 3 0.318
552 6 3 231 1 0 0 31 7 2 0.904
553 6 3 232 1 1 1 34 7 3 0.792
554 6 3 233 0 0 2 31 7 0 0.94
555 6 3 234 2 1 2 32 7 2 0.888
556 6 3 235 0 0 1 31 7 2 0.677
557 6 3 236 3 1 1 31 7 1 0.654
558 6 3 237 3 0 2 32 7 3 0.568
559 6 3 238 2 1 0 31 7 2 0.745
560 6 3 239 3 1 3 33 7 3 0.788
561 6 3 240 3 0 3 37 7 3 0.525
562 6 3 241 3 1 0 33 7 3 0.632
563 6 3 242 0 1 1 31 7 1 0.791
564 6 3 243 0 1 0 33 7 0 1.116
565 6 3 244 0 0 2 31 7 2 0.721
566 6 3 245 0 0 2 32 7 1 0.622
567 6 3 246 3 0 3 34 7 3 0.641
568 6 3 247 2 1 3 31 7 0 1.087
569 6 3 248 2 1 1 31 7 2 0.865
570 6 3 249 3 1 1 32 7 2 0.744
571 6 3 250 0 1 0 33 7 1 1.007
572 6 3 251 3 0 2 31 7 3 0.716
573 6 3 252 3 1 0 31 7 3 0.832
574 6 3 253 0 1 3 32 7 0 0.888
575 6 3 254 0 0 0 33 7 0 0.59
576 6 3 255 0 0 3 35 7 3 0.558
577 6 4 256 2 0 1 32 7 2 0.78
578 6 4 257 3 0 3 31 7 3 0.582
579 6 4 258 2 1 0 40 7 0 1.039
580 6 4 259 3 1 1 34 7 3 1.091
581 6 4 260 2 1 3 37 7 3 0.762
582 6 4 261 1 0 1 31 7 1 0.616
583 6 4 262 0 0 3 33 7 2 0.855
584 6 4 263 2 0 1 37 7 2 0.81
585 6 4 264 2 0 3 31 7 2 0.554
586 6 4 265 2 0 0 31 7 2 0.612
587 6 4 266 3 0 2 32 7 3 0.636
588 6 4 267 0 0 1 34 7 2 0.826
589 6 4 268 3 0 2 33 7 3 0.59
590 6 4 269 3 0 3 32 7 3 0.51
591 6 4 270 0 1 1 32 7 1 0.961
592 6 4 271 1 1 2 31 7 2 0.816
593 6 4 272 0 1 1 31 7 2 0.924
594 6 4 273 0 1 1 32 7 0 1.54
595 6 4 274 0 1 2 34 7 3 0.779
596 6 4 275 2 0 3 33 7 2 0.752
597 6 4 276 1 0 2 32 7 1 0.642
598 6 4 277 0 0 0 33 7 1 0.761
599 6 4 278 3 0 2 32 7 3 0.671
600 6 4 279 1 0 2 31 7 1 0.676
601 6 4 280 3 1 2 35 7 3 0.794
602 6 4 281 3 1 2 31 7 3 0.627
603 6 4 282 1 1 1 31 7 1 1.034
604 6 4 283 2 0 0 31 7 2 1.075
605 6 4 284 1 1 0 38 7 2 0.634
606 6 4 285 0 0 3 31 7 3 0.66
607 6 4 286 0 1 0 32 7 0 0.533
608 6 4 287 2 0 0 31 7 2 0.72
609 6 4 288 1 1 1 31 7 1 1.148
610 6 4 289 1 1 2 31 7 1 1.168
611 6 4 290 0 0 1 31 7 1 0.844
612 6 4 291 2 0 2 31 7 1 0.679
613 6 4 292 3 1 0 37 7 2 0.76
614 6 4 293 0 1 3 32 7 3 0.614
615 6 4 294 3 1 3 34 7 3 0.617
616 6 4 295 3 0 0 37 7 3 0.689
617 6 4 296 3 1 1 34 7 0 1.896
618 6 4 297 2 0 1 31 7 1 0.757
619 6 4 298 3 0 3 31 7 3 0.667
620 6 4 299 1 0 1 31 7 1 0.889
621 6 4 300 3 0 3 32 7 3 0.783
622 6 4 301 1 0 2 32 7 1 2.048
623 6 4 302 2 1 2 37 7 3 0.692
624 6 4 303 0 0 1 31 7 0 0.637
625 6 4 304 0 1 2 33 7 1 0.707
626 6 4 305 1 1 0 34 7 2 1.011
627 6 4 306 0 1 0 31 7 0 1.488
628 6 4 307 0 1 1 31 7 1 0.688
629 6 4 308 2 0 3 31 7 3 1.136
630 6 4 309 2 1 3 32 7 2 0.785
631 6 4 310 2 1 3 31 7 2 0.634
632 6 4 311 3 1 1 31 7 3 0.736
633 6 4 312 1 0 3 32 7 1 0.587
634 6 4 313 2 1 0 32 7 2 1.148
635 6 4 314 2 0 3 34 7 3 0.729
636 6 4 315 0 1 3 31 7 0 0.72
637 6 4 316 3 0 0 34 7 3 0.819
638 6 4 317 0 1 0 31 7 3 0.843
639 6 4 318 0 1 2 32 7 3 1.086
640 6 4 319 1 1 0 31 7 1 0.736
