datID sessionID block trial target cue location forePeriod targetTime resp rt
1 143 0 0 2 0 3 31 7 1 0.691
2 143 0 1 1 1 0 34 7 1 0.761
3 143 0 2 2 0 2 32 7 2 0.565
4 143 0 3 0 0 1 37 7 0 0.631
5 143 0 4 3 0 0 32 7 3 0.84
6 143 0 5 3 0 1 41 7 3 0.568
7 143 0 6 3 0 2 34 7 3 0.642
8 143 0 7 1 0 0 35 7 1 0.53
9 143 0 8 2 1 1 31 7 2 0.762
10 143 0 9 1 0 0 33 7 1 0.741
11 143 0 10 1 1 3 31 7 2 0.83
12 143 0 11 3 1 1 31 7 3 0.679
13 143 0 12 3 0 1 31 7 3 0.454
14 143 0 13 0 1 0 32 7 1 0.681
15 143 0 14 3 1 0 38 7 2 0.791
16 143 0 15 0 1 2 31 7 1 0.626
17 143 0 16 0 1 3 32 7 1 0.642
18 143 0 17 1 0 2 31 7 1 0.709
19 143 0 18 0 1 3 31 7 1 0.487
20 148 0 0 0 1 0 33 7 0 1.204
21 148 0 1 3 1 1 32 7 3 1.103
22 148 0 2 1 1 0 34 7 1 0.957
23 148 0 3 2 1 0 40 7 1 0.8
24 148 0 4 2 0 1 31 7 1 0.671
25 148 0 5 3 1 0 31 7 2 1.855
26 148 0 6 0 1 3 31 7 1 0.758
27 148 0 7 2 1 0 31 7 1 0.788
28 148 0 8 1 1 0 32 7 1 0.608
29 148 0 9 0 0 3 32 7 1 0.53
30 148 0 10 1 0 3 31 7 2 0.875
31 148 0 11 3 0 1 32 7 3 0.999
32 148 0 12 1 1 3 32 7 1 1.385
33 148 0 13 2 0 0 36 7 2 1.089
34 148 0 14 3 0 3 31 7 3 0.85
35 148 0 15 2 0 0 33 7 1 0.828
36 148 0 16 0 1 1 32 7 1 0.84
37 148 0 17 3 0 3 32 7 3 1.174
38 148 0 18 1 1 3 37 7 3 1.393
39 148 0 19 3 1 1 32 7 3 0.983
40 148 0 20 0 1 0 31 7 1 1.113
41 148 0 21 2 0 2 31 7 2 1.054
42 148 0 22 3 1 3 37 7 3 1.07
43 148 0 23 1 1 1 31 7 2 0.924
44 148 0 24 0 0 2 33 7 2 1.015
45 148 0 25 0 0 2 32 7 0 1.04
46 148 0 26 2 1 2 31 7 1 0.96
47 148 0 27 3 1 2 31 7 3 0.918
48 148 0 28 3 0 2 32 7 3 0.749
49 148 0 29 0 1 3 34 7 1 0.775
50 148 0 30 2 0 3 34 7 2 0.904
51 148 0 31 2 1 3 32 7 2 0.925
52 148 0 32 2 1 3 33 7 2 2.145
53 148 0 33 1 0 0 31 7 1 1.036
54 148 0 34 0 0 1 31 7 0 0.688
55 148 0 35 2 0 0 31 7 1 0.656
56 148 0 36 0 1 1 31 7 1 0.754
57 148 0 37 3 0 0 37 7 3 1.123
58 148 0 38 2 0 3 32 7 1 0.611
59 148 0 39 2 0 2 35 7 2 0.776
60 148 0 40 0 1 2 31 7 1 0.786
61 148 0 41 3 0 0 33 7 3 1.106
62 148 0 42 0 1 3 39 7 1 1.247
63 148 0 43 2 0 1 41 7 3 1.039
64 148 0 44 1 0 3 31 7 2 0.582
65 148 0 45 0 0 2 32 7 0 0.67
66 148 0 46 1 1 0 32 7 1 1.515
67 148 0 47 2 0 0 32 7 2 0.941
68 148 0 48 1 0 3 32 7 2 0.883
69 148 0 49 3 1 1 31 7 3 0.717
70 148 0 50 0 1 1 33 7 3 0.649
71 148 0 51 1 0 2 31 7 0 1.262
72 148 0 52 0 1 0 31 7 2 1.209
73 148 0 53 0 1 2 33 7 2 0.805
74 148 0 54 0 1 0 31 7 2 0.834
75 148 0 55 1 0 0 31 7 0 1.392
76 148 0 56 3 0 2 35 7 3 1.05
77 148 0 57 2 1 0 34 7 2 0.777
78 148 0 58 1 0 0 33 7 2 0.694
79 148 0 59 2 1 2 31 7 3 2.695
80 148 0 60 2 0 0 33 7 1 1.186
81 148 0 61 0 1 1 32 7 0 0.704
82 148 0 62 0 1 3 33 7 0 0.94
83 148 0 63 3 1 0 32 7 3 1.296
84 148 1 64 3 0 1 32 7 3 1.04
85 148 1 65 1 1 1 31 7 0 1.072
86 148 1 66 3 1 0 34 7 2 1.154
87 148 1 67 3 1 1 31 7 2 1.122
88 148 1 68 2 1 2 34 7 1 0.851
89 148 1 69 0 1 2 34 7 0 0.652
90 148 1 70 1 1 0 33 7 1 0.762
91 148 1 71 0 0 0 33 7 3 0.983
92 148 1 72 0 1 0 32 7 1 0.733
93 148 1 73 0 0 1 35 7 0 0.527
94 148 1 74 0 1 2 32 7 0 1.121
95 148 1 75 3 0 3 33 7 3 1.089
96 148 1 76 2 0 3 31 7 3 0.579
97 148 1 77 2 0 2 32 7 2 1.132
98 148 1 78 3 0 2 36 7 3 0.876
99 148 1 79 2 0 0 39 7 2 1.485
100 148 1 80 3 0 2 31 7 3 0.832
101 148 1 81 1 0 3 34 7 2 1.05
102 148 1 82 2 1 3 31 7 3 1.246
103 148 1 83 2 0 2 32 7 3 0.943
104 148 1 84 0 0 3 31 7 2 0.76
105 148 1 85 1 1 0 32 7 1 0.997
106 148 1 86 1 0 3 34 7 2 0.922
107 148 1 87 0 1 2 32 7 0 0.802
108 148 1 88 1 1 2 31 7 1 0.635
109 148 1 89 1 0 0 35 7 2 0.828
110 148 1 90 1 1 2 33 7 1 1.046
111 148 1 91 2 0 2 33 7 2 1.161
112 148 1 92 0 1 1 32 7 1 0.821
113 148 1 93 1 0 0 31 7 1 0.581
114 148 1 94 0 0 2 33 7 0 0.617
115 148 1 95 3 0 1 32 7 3 1.164
116 148 1 96 2 1 0 32 7 1 0.823
117 148 1 97 1 1 3 34 7 0 0.882
118 148 1 98 0 1 0 31 7 1 0.795
119 148 1 99 2 1 2 31 7 2 1.047
120 148 1 100 2 0 3 31 7 2 1.737
121 148 1 101 0 1 1 34 7 3 1.105
122 148 1 102 2 0 3 32 7 3 1.846
123 148 1 103 1 0 1 31 7 1 1.599
124 148 1 104 3 1 3 33 7 0 1.259
125 148 1 105 3 1 1 32 7 3 1.51
126 148 1 106 3 0 3 31 7 3 1.593
127 148 1 107 0 0 3 34 7 0 0.904
128 148 1 108 1 1 2 41 7 0 1.101
129 148 1 109 3 0 1 41 7 3 1.186
130 148 1 110 0 0 3 35 7 0 1.024
131 148 1 111 2 0 1 34 7 2 1.188
132 148 1 112 3 1 3 32 7 1 1.086
133 148 1 113 1 1 1 31 7 0 1.087
134 148 1 114 2 0 1 31 7 2 1.125
135 148 1 115 0 1 1 34 7 0 1.138
136 148 1 116 1 1 0 32 7 1 1.374
137 148 1 117 1 1 3 32 7 1 0.961
138 148 1 118 3 1 1 32 7 3 1.14
139 148 1 119 3 1 2 35 7 3 1.456
140 148 1 120 3 0 2 32 7 3 0.965
141 148 1 121 3 1 0 33 7 3 1.384
142 148 1 122 2 0 2 32 7 2 0.975
143 148 1 123 2 1 1 32 7 2 1.09
144 148 1 124 0 0 1 40 7 0 0.948
145 148 1 125 0 0 3 31 7 1 0.938
146 148 1 126 3 0 0 34 7 3 0.997
147 148 1 127 2 1 0 31 7 1 1.126
148 148 2 128 3 1 3 32 7 1 1.171
149 148 2 129 0 0 2 33 7 0 0.677
150 148 2 130 0 1 2 31 7 1 0.882
151 148 2 131 0 1 2 31 7 1 0.78
152 148 2 132 1 1 2 35 7 1 0.648
153 148 2 133 1 0 3 32 7 1 0.617
154 148 2 134 0 0 2 31 7 1 0.523
155 148 2 135 2 0 1 32 7 2 0.997
156 148 2 136 0 1 3 32 7 1 0.87
157 148 2 137 1 1 2 31 7 2 0.896
158 148 2 138 1 0 2 31 7 1 0.716
159 148 2 139 0 0 3 34 7 2 1.035
160 148 2 140 0 0 1 31 7 0 0.786
161 148 2 141 3 0 1 31 7 3 1.007
162 148 2 142 2 0 3 34 7 2 1.155
163 148 2 143 3 1 0 31 7 1 1.454
164 148 2 144 0 0 0 33 7 0 1.126
165 148 2 145 3 1 2 31 7 3 2.18
166 148 2 146 3 0 3 33 7 3 1.934
167 148 2 147 0 0 1 33 7 1 4.144
168 148 2 148 1 0 1 31 7 1 2.233
169 148 2 149 1 1 1 31 7 1 0.701
170 148 2 150 3 0 2 34 7 3 1.18
171 148 2 151 1 0 1 33 7 1 0.923
172 148 2 152 3 0 3 33 7 3 0.979
173 148 2 153 2 1 3 32 7 2 1.204
174 148 2 154 3 1 1 31 7 3 1.198
175 148 2 155 3 1 2 33 7 3 0.953
176 148 2 156 2 1 2 31 7 2 1.244
177 148 2 157 1 1 0 38 7 3 1.508
178 148 2 158 1 1 1 32 7 1 1.206
179 148 2 159 1 0 2 40 7 1 0.723
180 148 2 160 3 1 3 33 7 3 1.119
181 148 2 161 1 1 2 32 7 2 1.18
182 148 2 162 1 0 0 32 7 1 0.862
183 148 2 163 1 1 2 33 7 1 0.676
184 148 2 164 3 1 2 33 7 3 0.977
185 148 2 165 3 0 1 35 7 3 0.648
186 148 2 166 0 0 0 31 7 0 1.081
187 148 2 167 3 0 0 31 7 3 1.018
188 148 2 168 0 0 0 35 7 0 1.342
189 148 2 169 0 1 3 32 7 1 1.108
190 148 2 170 3 0 1 36 7 3 1.097
191 148 2 171 1 0 1 34 7 1 1.066
192 148 2 172 0 0 0 36 7 0 0.972
193 148 2 173 0 0 0 31 7 0 0.946
194 148 2 174 0 1 3 33 7 0 0.854
195 148 2 175 2 0 3 38 7 2 1.168
196 148 2 176 3 1 3 31 7 3 1.292
197 148 2 177 2 0 3 40 7 2 1.237
198 148 2 178 3 1 0 31 7 3 1.614
199 148 2 179 1 0 1 32 7 1 0.829
200 148 2 180 1 1 1 35 7 3 1.012
201 148 2 181 3 0 1 32 7 3 0.604
202 148 2 182 2 1 2 31 7 1 1.179
203 148 2 183 1 0 3 31 7 1 0.477
204 148 2 184 1 1 3 31 7 1 0.722
205 148 2 185 0 0 2 34 7 0 0.961
206 148 2 186 0 1 3 34 7 1 0.899
207 148 2 187 3 0 3 31 7 3 1.07
208 148 2 188 0 0 3 37 7 2 1.761
209 148 2 189 0 0 1 31 7 0 0.734
210 148 2 190 3 1 3 31 7 3 1.609
211 148 2 191 2 1 2 43 7 1 0.789
212 148 3 192 1 0 2 31 7 1 1.678
213 148 3 193 1 1 2 32 7 1 0.616
214 148 3 194 3 1 0 34 7 3 1.207
215 148 3 195 3 1 2 31 7 2 1.121
216 148 3 196 1 1 3 35 7 1 0.849
217 148 3 197 1 0 2 33 7 1 1.035
218 148 3 198 2 1 3 31 7 2 2.556
219 148 3 199 3 0 0 32 7 3 0.968
220 148 3 200 1 0 2 31 7 1 1.326
221 148 3 201 2 0 1 31 7 2 0.872
222 148 3 202 1 1 0 32 7 1 0.654
223 148 3 203 1 0 1 34 7 1 0.543
224 148 3 204 0 0 1 31 7 0 0.835
225 148 3 205 3 0 3 31 7 3 1.118
226 148 3 206 3 0 2 34 7 3 0.671
227 148 3 207 2 1 1 35 7 1 0.908
228 148 3 208 3 0 0 32 7 3 1.223
229 148 3 209 1 1 1 31 7 0 1.264
230 148 3 210 2 0 2 34 7 1 0.575
231 148 3 211 1 0 2 32 7 1 0.616
232 148 3 212 1 1 3 32 7 1 0.919
233 148 3 213 1 0 3 33 7 1 0.414
234 148 3 214 0 0 1 31 7 0 0.711
235 148 3 215 0 1 1 31 7 3 0.978
236 148 3 216 1 0 2 46 7 1 1.596
237 148 3 217 1 0 0 31 7 1 0.62
238 148 3 218 2 1 3 32 7 1 0.682
239 148 3 219 0 1 0 33 7 0 1.61
240 149 0 0 3 0 3 31 7 3 1.097
241 148 3 220 3 1 2 34 7 3 1.718
242 149 0 1 1 1 0 33 7 1 0.743
243 148 3 221 0 0 0 32 7 0 0.657
244 149 0 2 2 1 2 36 7 2 0.706
245 148 3 222 0 1 1 33 7 0 0.655
246 149 0 3 0 0 1 31 7 0 0.513
247 148 3 223 2 0 2 35 7 1 0.864
248 149 0 4 3 1 0 34 7 0 0.699
249 148 3 224 1 0 1 32 7 1 1.149
250 149 0 5 0 0 0 39 7 0 1.567
251 148 3 225 1 0 1 32 7 2 0.845
252 149 0 6 3 1 3 32 7 2 0.837
253 148 3 226 0 1 3 32 7 1 0.824
254 149 0 7 0 0 3 32 7 0 0.507
255 148 3 227 2 1 0 31 7 1 1.042
256 149 0 8 0 1 2 33 7 3 0.647
257 148 3 228 2 0 0 31 7 2 0.921
258 149 0 9 3 1 3 32 7 3 0.721
259 148 3 229 2 1 2 32 7 2 1.533
260 149 0 10 2 0 0 34 7 1 0.808
261 149 0 11 1 1 1 32 7 2 0.644
262 148 3 230 0 0 0 36 7 3 1.711
263 148 3 231 3 1 3 34 7 3 1.419
264 149 0 12 3 1 3 31 7 0 3.006
265 149 0 13 1 0 3 31 7 1 0.551
266 148 3 232 2 1 1 31 7 0 1.437
267 149 0 14 2 1 3 31 7 1 0.634
268 148 3 233 2 0 3 34 7 1 0.757
269 149 0 15 1 1 1 32 7 1 0.452
270 148 3 234 1 0 0 32 7 2 1.043
271 149 0 16 3 0 0 31 7 3 0.581
272 149 0 17 1 1 1 34 7 1 0.438
273 148 3 235 2 1 1 35 7 2 3.799
274 149 0 18 0 1 1 32 7 2 0.772
275 149 0 19 0 1 1 31 7 0 0.385
276 148 3 236 3 1 0 33 7 3 1.556
277 149 0 20 2 0 2 35 7 2 0.653
278 148 3 237 2 1 1 31 7 1 0.72
279 149 0 21 3 0 3 31 7 3 0.55
280 149 0 22 2 1 3 32 7 2 0.424
281 148 3 238 2 1 2 37 7 2 1.536
282 149 0 23 2 0 0 32 7 2 0.562
283 148 3 239 2 1 2 31 7 2 1.421
284 149 0 24 1 1 3 32 7 3 0.732
285 148 3 240 1 0 0 36 7 3 1.49
286 149 0 25 1 1 3 32 7 1 0.507
287 148 3 241 0 0 3 31 7 1 0.793
288 149 0 26 1 1 1 31 7 0 0.67
289 149 0 27 0 0 3 31 7 0 0.507
290 148 3 242 0 0 3 33 7 3 1.705
291 149 0 28 3 1 0 35 7 3 0.526
292 148 3 243 0 0 1 31 7 3 1.417
293 149 0 29 0 1 2 35 7 0 0.929
294 148 3 244 3 0 1 31 7 3 0.706
295 149 0 30 1 0 0 34 7 2 0.641
296 148 3 245 1 1 3 31 7 1 0.749
297 149 0 31 1 1 2 34 7 1 0.451
298 148 3 246 2 1 1 37 7 0 1.095
299 149 0 32 3 0 2 37 7 3 0.524
300 149 0 33 2 0 3 31 7 2 0.491
301 148 3 247 2 1 3 33 7 3 1.961
302 149 0 34 2 0 0 33 7 1 0.666
303 148 3 248 3 1 3 31 7 3 0.7
304 149 0 35 2 1 1 31 7 2 0.652
305 148 3 249 2 1 1 34 7 1 1.064
306 149 0 36 3 0 1 32 7 3 0.557
307 149 0 37 0 0 3 31 7 0 0.435
308 149 0 38 2 0 3 31 7 2 0.508
309 148 3 250 3 1 1 32 7 3 3.242
310 149 0 39 3 1 1 31 7 3 0.816
311 148 3 251 3 0 0 31 7 3 0.558
312 149 0 40 3 1 0 31 7 2 0.592
313 148 3 252 2 1 0 35 7 1 0.704
314 149 0 41 2 0 2 34 7 2 0.584
315 148 3 253 3 0 2 33 7 3 1.507
316 149 0 42 2 1 2 33 7 1 0.561
317 148 3 254 3 0 3 33 7 3 0.757
318 149 0 43 3 0 3 34 7 3 0.553
319 149 0 44 0 1 3 36 7 0 0.379
320 148 3 255 2 1 1 32 7 2 1.31
321 149 0 45 0 1 2 31 7 1 0.643
322 149 0 46 3 0 0 39 7 3 0.633
323 149 0 47 2 1 3 33 7 2 0.487
324 149 0 48 3 0 3 31 7 3 0.503
325 149 0 49 1 0 3 31 7 1 0.518
326 149 0 50 1 0 1 32 7 2 0.66
327 149 0 51 3 1 1 31 7 0 0.67
328 149 0 52 3 0 0 34 7 3 0.562
329 149 0 53 3 0 1 32 7 3 0.423
330 149 0 54 2 0 1 31 7 2 0.473
331 149 0 55 2 0 2 31 7 2 0.569
332 149 0 56 3 1 3 31 7 3 0.482
333 149 0 57 3 1 2 35 7 3 0.567
334 149 0 58 2 0 1 31 7 2 0.651
335 149 0 59 0 0 3 31 7 0 0.565
336 149 0 60 1 0 3 33 7 1 0.554
337 149 0 61 3 1 2 31 7 3 0.54
338 149 0 62 3 0 0 31 7 3 0.553
339 149 0 63 0 0 0 33 7 0 0.534
340 149 1 64 3 1 2 31 7 3 0.701
341 149 1 65 0 1 0 31 7 2 0.602
342 149 1 66 2 1 0 33 7 2 0.517
343 148 4 256 0 1 3 36 7 0 1.429
344 149 1 67 3 1 3 33 7 1 0.64
345 148 4 257 1 1 3 31 7 1 0.664
346 149 1 68 2 1 1 31 7 0 0.722
347 148 4 258 2 0 0 31 7 2 0.921
348 149 1 69 3 1 2 32 7 3 0.649
349 148 4 259 2 0 1 35 7 2 0.768
350 149 1 70 0 0 2 32 7 0 0.5
351 148 4 260 1 1 0 31 7 1 0.505
352 149 1 71 1 0 2 31 7 1 0.443
353 148 4 261 3 0 2 36 7 3 1.088
354 149 1 72 1 0 2 31 7 1 0.476
355 149 1 73 2 1 1 32 7 0 0.616
356 148 4 262 2 1 3 32 7 2 1.23
357 149 1 74 3 0 2 31 7 3 0.511
358 148 4 263 0 1 0 37 7 0 0.894
359 149 1 75 1 0 2 31 7 2 0.518
360 149 1 76 2 1 2 34 7 2 0.485
361 148 4 264 1 0 3 31 7 1 0.758
362 148 4 265 0 1 2 33 7 1 0.624
363 149 1 77 1 1 0 32 7 1 0.569
364 149 1 78 0 0 1 31 7 0 0.429
365 148 4 266 3 0 0 31 7 3 0.918
366 149 1 79 1 1 0 40 7 1 0.371
367 148 4 267 1 1 0 31 7 1 0.906
368 149 1 80 0 1 2 31 7 2 0.683
369 148 4 268 3 1 0 34 7 3 0.782
370 149 1 81 2 0 0 31 7 2 0.496
371 148 4 269 0 1 0 33 7 0 0.647
372 149 1 82 0 1 1 45 7 0 0.508
373 148 4 270 1 0 2 31 7 1 0.968
374 149 1 83 2 0 2 31 7 2 0.619
375 148 4 271 1 0 3 31 7 1 0.686
376 149 1 84 3 0 2 32 7 3 0.533
377 149 1 85 2 1 2 33 7 2 0.52
378 148 4 272 0 1 0 31 7 0 0.811
379 149 1 86 1 1 2 32 7 1 0.499
380 148 4 273 0 0 3 32 7 1 1.702
381 149 1 87 0 0 1 34 7 0 0.538
382 148 4 274 3 1 1 31 7 3 0.834
383 149 1 88 1 1 3 32 7 2 0.565
384 148 4 275 0 0 0 35 7 0 0.573
385 149 1 89 1 0 1 31 7 1 0.469
386 148 4 276 2 0 2 31 7 1 0.433
387 149 1 90 3 0 1 37 7 3 0.485
388 148 4 277 3 0 0 34 7 3 0.943
389 149 1 91 1 0 3 31 7 3 0.589
390 149 1 92 3 0 1 32 7 3 0.516
391 148 4 278 2 0 3 36 7 1 0.629
392 148 4 279 2 1 1 32 7 1 0.503
393 149 1 93 2 1 2 34 7 2 0.544
394 149 1 94 2 1 1 31 7 2 0.53
395 148 4 280 0 1 2 32 7 3 0.75
396 149 1 95 1 0 1 31 7 1 0.512
397 148 4 281 2 1 3 33 7 1 0.507
398 149 1 96 3 0 1 33 7 3 0.487
399 148 4 282 2 0 0 33 7 2 1.286
400 149 1 97 0 0 0 31 7 0 0.391
401 149 1 98 3 0 1 35 7 3 0.442
402 148 4 283 2 1 0 31 7 2 2.381
403 149 1 99 0 1 1 35 7 1 0.599
404 148 4 284 3 1 2 32 7 3 0.861
405 149 1 100 3 0 3 33 7 3 0.431
406 149 1 101 2 0 1 33 7 2 0.473
407 148 4 285 2 0 0 33 7 2 1.158
408 149 1 102 2 1 3 32 7 2 0.437
409 148 4 286 3 1 1 33 7 3 1.106
410 149 1 103 2 1 0 36 7 1 0.635
411 148 4 287 1 1 2 53 7 1 1.392
412 149 1 104 2 1 3 31 7 3 0.573
413 148 4 288 1 1 1 32 7 0 1.043
414 149 1 105 0 0 1 32 7 2 0.701
415 149 1 106 1 1 0 34 7 1 0.814
416 148 4 289 1 1 2 34 7 1 1.207
417 149 1 107 2 1 1 36 7 2 0.734
418 148 4 290 3 0 2 35 7 3 1.06
419 149 1 108 3 0 0 32 7 3 0.469
420 148 4 291 0 0 0 32 7 0 1.127
421 149 1 109 0 1 0 37 7 1 0.465
422 148 4 292 1 0 0 31 7 1 0.903
423 149 1 110 1 1 2 32 7 2 0.53
424 149 1 111 0 1 3 34 7 3 0.616
425 148 4 293 2 0 1 33 7 2 1.087
426 149 1 112 0 1 2 31 7 1 0.54
427 148 4 294 1 1 1 34 7 1 0.813
428 149 1 113 1 1 2 35 7 1 0.409
429 148 4 295 2 0 1 31 7 1 0.936
430 149 1 114 0 0 0 31 7 2 0.836
431 148 4 296 1 0 1 31 7 1 1.107
432 149 1 115 3 0 2 37 7 3 0.474
433 148 4 297 1 0 2 31 7 1 1.012
434 149 1 116 3 0 0 33 7 3 0.395
435 149 1 117 0 1 3 32 7 2 0.578
436 148 4 298 1 1 1 33 7 1 1.124
437 149 1 118 2 0 2 31 7 2 0.666
438 148 4 299 0 1 1 31 7 0 1.025
439 149 1 119 0 1 0 33 7 3 0.672
440 148 4 300 0 0 2 31 7 0 0.629
441 149 1 120 2 1 0 31 7 2 0.385
442 148 4 301 2 1 0 31 7 1 0.724
443 149 1 121 2 0 0 36 7 2 0.597
444 148 4 302 3 1 0 32 7 3 1.01
445 149 1 122 3 1 0 31 7 3 0.477
446 149 1 123 2 0 2 33 7 2 0.645
447 148 4 303 3 1 2 31 7 2 1.154
448 149 1 124 2 1 2 35 7 2 0.428
449 148 4 304 0 0 1 35 7 0 0.694
450 149 1 125 2 1 0 32 7 2 0.842
451 148 4 305 2 1 0 32 7 2 0.833
452 149 1 126 1 0 0 31 7 1 0.445
453 148 4 306 3 1 2 31 7 3 1.273
454 149 1 127 0 0 3 32 7 0 0.558
455 148 4 307 0 0 2 31 7 3 0.933
456 148 4 308 0 0 2 31 7 0 0.496
457 149 2 128 1 1 3 32 7 1 0.59
458 149 2 129 2 0 1 33 7 2 0.522
459 148 4 309 3 1 3 33 7 0 0.804
460 149 2 130 2 0 3 33 7 2 0.48
461 148 4 310 3 0 1 31 7 3 1.14
462 149 2 131 0 0 1 34 7 2 0.489
463 149 2 132 3 0 2 35 7 3 0.396
464 148 4 311 2 1 3 32 7 3 1.744
465 149 2 133 3 1 0 31 7 1 1.043
466 148 4 312 3 0 0 32 7 3 1.246
467 149 2 134 1 0 2 33 7 2 0.571
468 148 4 313 2 1 1 34 7 1 0.806
469 149 2 135 0 1 1 33 7 1 0.775
470 148 4 314 0 1 2 31 7 1 0.69
471 149 2 136 1 1 3 32 7 1 0.628
472 148 4 315 1 0 1 33 7 1 0.486
473 149 2 137 3 0 1 31 7 3 0.471
474 148 4 316 1 1 3 31 7 1 0.554
475 149 2 138 0 1 0 31 7 3 0.932
476 148 4 317 3 0 3 34 7 3 1.118
477 149 2 139 3 0 2 32 7 3 0.551
478 149 2 140 1 1 3 31 7 1 0.537
479 148 4 318 2 0 2 31 7 2 2.063
480 149 2 141 2 0 2 32 7 2 0.575
481 148 4 319 2 0 1 32 7 2 0.478
482 149 2 142 3 0 2 31 7 3 0.515
483 149 2 143 0 0 2 34 7 0 0.37
484 149 2 144 1 1 2 31 7 1 0.53
485 149 2 145 2 0 0 32 7 2 0.52
486 149 2 146 3 1 0 34 7 1 0.779
487 149 2 147 2 1 1 31 7 2 0.497
488 149 2 148 3 1 1 33 7 3 0.548
489 149 2 149 1 0 2 40 7 2 0.602
490 149 2 150 0 0 2 33 7 0 0.441
491 149 2 151 1 1 2 36 7 2 0.55
492 149 2 152 0 0 0 31 7 0 0.4
493 149 2 153 1 1 2 32 7 2 0.551
494 149 2 154 2 1 0 36 7 2 0.612
495 149 2 155 0 0 3 32 7 0 0.559
496 149 2 156 1 0 2 31 7 1 0.412
497 149 2 157 0 0 2 31 7 0 0.375
498 149 2 158 0 1 2 34 7 0 0.319
499 149 2 159 2 1 1 31 7 2 0.329
500 149 2 160 3 1 0 41 7 3 0.346
501 149 2 161 1 0 3 31 7 0 0.831
502 149 2 162 0 0 0 31 7 0 0.366
503 149 2 163 0 1 0 32 7 1 0.407
504 149 2 164 2 1 3 33 7 2 0.489
505 149 2 165 1 1 3 36 7 2 0.445
506 149 2 166 1 0 0 34 7 0 0.506
507 149 2 167 1 0 1 35 7 2 0.652
508 149 2 168 2 1 0 34 7 2 0.646
509 149 2 169 3 1 3 31 7 2 0.669
510 149 2 170 1 1 1 32 7 1 0.734
511 149 2 171 1 0 0 34 7 1 0.493
512 149 2 172 0 1 1 39 7 0 0.489
513 149 2 173 0 0 1 31 7 0 0.512
514 149 2 174 2 0 0 32 7 2 0.478
515 149 2 175 0 0 2 34 7 0 0.486
516 149 2 176 3 1 1 32 7 1 0.578
517 149 2 177 0 0 2 36 7 3 0.618
518 149 2 178 1 1 1 31 7 1 0.349
519 149 2 179 3 0 2 36 7 3 0.498
520 149 2 180 1 0 1 37 7 1 0.33
521 149 2 181 3 1 2 34 7 3 0.787
522 149 2 182 1 1 0 32 7 3 0.829
523 149 2 183 3 1 1 42 7 3 0.408
524 149 2 184 3 1 0 32 7 1 0.518
525 149 2 185 1 0 2 32 7 1 0.408
526 149 2 186 0 1 0 31 7 1 0.631
527 149 2 187 3 1 2 31 7 3 0.554
528 149 2 188 3 1 2 31 7 3 0.468
529 149 2 189 0 1 3 31 7 2 0.608
530 149 2 190 2 1 0 31 7 1 0.371
531 149 2 191 1 1 3 31 7 1 0.534
532 149 3 192 2 0 3 42 7 2 0.621
533 149 3 193 1 0 2 31 7 3 0.504
534 149 3 194 3 0 3 32 7 3 0.419
535 149 3 195 1 1 2 32 7 1 0.761
536 149 3 196 2 1 0 31 7 2 1.011
537 149 3 197 1 0 3 31 7 0 0.368
538 149 3 198 3 1 1 31 7 0 0.644
539 149 3 199 2 1 1 35 7 2 0.63
540 149 3 200 0 0 0 32 7 0 0.473
541 149 3 201 0 1 1 31 7 0 0.51
542 149 3 202 0 1 3 33 7 0 0.401
543 149 3 203 1 0 0 32 7 1 0.652
544 149 3 204 3 1 1 31 7 2 0.738
545 149 3 205 1 0 0 33 7 1 1.06
546 149 3 206 1 1 0 39 7 1 0.668
547 149 3 207 2 0 3 31 7 2 0.709
548 149 3 208 2 1 2 33 7 0 0.577
549 149 3 209 0 0 2 39 7 0 0.497
550 149 3 210 2 0 1 31 7 2 0.52
551 149 3 211 2 0 3 31 7 2 0.646
552 149 3 212 0 0 1 31 7 2 0.712
553 149 3 213 3 1 3 32 7 3 0.624
554 149 3 214 2 0 3 31 7 2 0.579
555 149 3 215 3 1 1 35 7 0 0.628
556 149 3 216 0 1 2 31 7 2 0.527
557 149 3 217 2 1 0 32 7 2 0.565
558 149 3 218 3 0 0 32 7 3 0.514
559 149 3 219 3 0 2 32 7 3 0.489
560 149 3 220 2 1 2 36 7 2 0.565
561 149 3 221 2 0 1 32 7 2 0.53
562 149 3 222 0 1 3 35 7 0 0.445
563 149 3 223 3 0 2 35 7 3 0.47
564 149 3 224 1 0 0 35 7 1 0.446
565 149 3 225 1 0 2 31 7 2 0.423
566 149 3 226 1 1 1 33 7 1 0.497
567 149 3 227 1 0 2 32 7 1 0.473
568 149 3 228 2 0 3 36 7 1 1.001
569 149 3 229 3 1 3 35 7 3 0.51
570 149 3 230 0 0 2 31 7 3 0.445
571 149 3 231 1 1 2 33 7 1 0.582
572 149 3 232 2 1 3 32 7 2 0.471
573 149 3 233 3 0 1 32 7 3 0.454
574 149 3 234 1 0 0 31 7 3 0.695
575 149 3 235 3 0 1 33 7 3 0.459
576 149 3 236 1 1 1 32 7 2 0.72
577 149 3 237 2 1 1 32 7 2 0.431
578 149 3 238 3 0 0 33 7 3 0.409
579 149 3 239 2 0 0 31 7 1 0.427
580 149 3 240 2 0 3 32 7 2 0.473
581 149 3 241 1 0 1 34 7 1 0.409
582 149 3 242 0 0 2 31 7 0 0.419
583 149 3 243 0 1 3 33 7 3 0.722
584 149 3 244 1 0 1 31 7 3 0.604
585 149 3 245 0 0 3 31 7 0 1.667
586 149 3 246 3 0 3 33 7 2 0.489
587 149 3 247 2 1 1 33 7 0 1.312
588 149 3 248 1 0 3 34 7 1 0.614
589 149 3 249 2 0 1 32 7 2 0.425
590 149 3 250 2 0 2 35 7 2 0.475
591 149 3 251 0 1 3 33 7 0 0.336
592 149 3 252 1 0 0 33 7 1 0.381
593 149 3 253 0 0 3 32 7 0 0.368
594 149 3 254 0 1 3 31 7 0 0.448
595 149 3 255 0 1 1 31 7 0 0.654
596 149 4 256 0 0 3 31 7 0 0.332
597 149 4 257 1 1 1 31 7 3 0.958
598 149 4 258 0 1 0 31 7 0 0.533
599 149 4 259 1 0 3 34 7 1 0.442
600 149 4 260 3 1 2 34 7 1 0.68
601 149 4 261 1 1 2 32 7 1 0.449
602 149 4 262 0 1 0 31 7 2 0.655
603 149 4 263 0 1 0 32 7 0 0.336
604 149 4 264 3 0 3 33 7 3 0.493
605 149 4 265 3 0 1 31 7 3 0.389
606 149 4 266 1 1 3 44 7 1 0.892
607 149 4 267 0 1 1 33 7 0 0.602
608 149 4 268 0 0 0 33 7 0 0.541
609 149 4 269 3 1 2 33 7 3 0.479
610 149 4 270 1 0 3 32 7 1 0.495
611 149 4 271 3 1 1 32 7 0 0.667
612 149 4 272 1 0 3 34 7 1 0.48
613 149 4 273 2 0 0 32 7 2 0.665
614 149 4 274 3 1 1 32 7 3 0.583
615 149 4 275 0 1 2 31 7 1 0.536
616 149 4 276 2 0 2 32 7 2 0.481
617 149 4 277 3 0 0 32 7 3 0.488
618 149 4 278 2 0 2 32 7 2 0.616
619 149 4 279 0 1 0 31 7 1 0.584
620 149 4 280 1 0 0 31 7 1 0.496
621 149 4 281 1 1 0 31 7 1 0.388
622 149 4 282 3 1 3 31 7 3 0.547
623 149 4 283 2 1 2 31 7 2 0.453
624 149 4 284 3 0 3 36 7 3 0.59
625 149 4 285 2 1 3 32 7 2 0.486
626 149 4 286 3 0 0 32 7 3 0.518
627 149 4 287 1 1 0 34 7 1 0.393
628 149 4 288 3 1 2 35 7 3 0.537
629 149 4 289 2 1 3 33 7 2 0.427
630 149 4 290 0 1 2 36 7 2 0.505
631 149 4 291 1 0 1 31 7 3 0.723
632 149 4 292 3 0 3 31 7 3 0.382
633 149 4 293 1 0 1 31 7 1 0.425
634 149 4 294 2 0 0 31 7 2 0.571
635 149 4 295 0 0 0 31 7 0 0.36
636 149 4 296 0 0 1 33 7 2 0.627
637 149 4 297 0 0 2 31 7 0 0.458
638 149 4 298 3 1 3 32 7 3 0.703
639 149 4 299 1 0 1 32 7 2 0.582
640 149 4 300 0 1 3 31 7 2 0.651
641 149 4 301 2 1 0 31 7 2 0.589
642 149 4 302 0 1 2 34 7 3 0.502
643 149 4 303 1 1 1 31 7 0 0.78
644 149 4 304 0 0 1 41 7 0 0.389
645 149 4 305 2 0 1 34 7 2 0.44
646 149 4 306 2 1 2 31 7 2 0.758
647 149 4 307 2 1 3 36 7 2 0.537
648 149 4 308 1 1 0 32 7 1 0.443
649 149 4 309 2 0 3 33 7 2 0.476
650 149 4 310 2 0 1 39 7 2 0.5
651 149 4 311 3 1 0 45 7 2 1.064
652 149 4 312 2 0 1 32 7 2 0.575
653 149 4 313 0 0 3 31 7 3 0.539
654 149 4 314 0 0 0 34 7 0 0.357
655 149 4 315 0 0 1 31 7 0 0.28
656 149 4 316 1 1 3 32 7 0 0.604
657 149 4 317 3 1 0 36 7 2 0.687
658 149 4 318 0 1 1 37 7 2 0.56
659 149 4 319 1 1 0 32 7 1 0.325
660 151 0 0 2 1 2 31 7 1 0.612
661 151 0 1 1 0 1 34 7 1 0.508
662 151 0 2 3 0 3 32 7 1 0.595
663 151 0 3 1 0 3 33 7 1 0.475
664 151 0 4 3 0 3 33 7 3 1.123
665 151 0 5 0 0 1 31 7 0 0.42
666 151 0 6 2 0 0 33 7 2 0.638
667 151 0 7 0 1 0 34 7 1 0.701
668 151 0 8 2 0 2 32 7 2 0.705
669 151 0 9 1 0 2 31 7 1 0.528
670 151 0 10 0 0 0 32 7 0 0.39
671 151 0 11 0 1 0 33 7 0 0.571
672 151 0 12 1 1 0 31 7 0 0.541
673 151 0 13 0 1 3 32 7 2 0.947
674 151 0 14 2 0 3 32 7 2 0.654
675 151 0 15 0 0 2 37 7 0 0.496
676 151 0 16 3 0 3 33 7 2 0.615
677 151 0 17 2 1 2 33 7 1 1.291
678 151 0 18 3 1 3 37 7 0 0.711
679 151 0 19 2 1 2 32 7 2 0.886
680 151 0 20 2 0 3 31 7 1 0.639
681 151 0 21 2 1 3 31 7 2 10.529
682 151 0 22 0 1 2 39 7 2 4.158
683 151 0 23 0 0 3 31 7 1 0.566
684 151 0 24 2 0 1 32 7 2 0.686
685 151 0 25 1 1 2 32 7 1 0.731
686 151 0 26 1 1 0 32 7 0 0.839
687 151 0 27 1 1 1 31 7 1 0.563
688 151 0 28 1 1 2 31 7 0 0.661
689 151 0 29 1 1 2 32 7 2 0.774
690 151 0 30 0 0 0 31 7 0 0.486
691 151 0 31 3 1 2 36 7 2 0.714
692 151 0 32 2 1 3 33 7 0 0.666
693 151 0 33 2 1 0 31 7 0 0.669
694 151 0 34 3 0 1 31 7 3 1.041
695 151 0 35 2 0 1 33 7 2 0.628
696 151 0 36 3 1 0 32 7 1 0.723
697 151 0 37 0 1 1 35 7 0 0.691
698 151 0 38 2 1 1 37 7 0 0.608
699 151 0 39 2 0 3 31 7 1 0.583
700 151 0 40 1 0 0 33 7 1 0.543
701 151 0 41 0 1 3 32 7 1 1.009
702 151 0 42 1 1 3 31 7 1 0.679
703 151 0 43 3 1 0 33 7 0 0.629
704 151 0 44 1 0 2 34 7 2 0.699
705 151 0 45 3 0 0 34 7 2 0.591
706 151 0 46 0 1 3 37 7 1 1.074
707 151 0 47 0 1 0 32 7 0 0.597
708 151 0 48 2 0 2 31 7 2 0.633
709 151 0 49 3 0 2 31 7 3 0.684
710 151 0 50 1 0 2 35 7 1 0.493
711 151 0 51 2 0 2 34 7 2 0.692
712 151 0 52 0 0 1 31 7 0 0.436
713 151 0 53 1 0 1 31 7 1 0.525
714 151 0 54 0 0 1 31 7 0 0.403
715 151 0 55 2 1 1 36 7 0 0.571
716 151 0 56 2 0 2 35 7 2 0.627
717 151 0 57 2 1 3 35 7 2 0.642
718 151 0 58 0 0 1 36 7 0 0.452
719 151 0 59 0 1 2 31 7 0 0.713
720 151 0 60 0 0 0 31 7 0 0.426
721 151 0 61 0 1 0 31 7 0 0.512
722 151 0 62 2 1 0 33 7 0 0.564
723 151 0 63 2 1 1 31 7 1 0.552
724 151 1 64 0 1 0 31 7 1 0.635
725 151 1 65 3 0 1 31 7 3 0.849
726 151 1 66 2 1 3 32 7 0 0.713
727 151 1 67 1 0 0 35 7 1 0.653
728 151 1 68 3 1 3 34 7 3 0.812
729 151 1 69 0 1 1 31 7 0 0.565
730 151 1 70 2 1 0 31 7 0 0.534
731 151 1 71 3 1 3 31 7 1 0.573
732 151 1 72 2 1 1 32 7 1 0.802
733 151 1 73 3 0 3 37 7 2 0.963
734 151 1 74 2 0 0 31 7 0 0.846
735 151 1 75 2 0 1 34 7 2 0.653
736 151 1 76 0 1 2 33 7 1 0.731
737 151 1 77 3 1 3 32 7 0 0.699
738 151 1 78 1 1 2 31 7 0 0.635
739 151 1 79 3 1 2 32 7 1 0.894
740 151 1 80 1 0 3 34 7 2 1.004
741 151 1 81 0 0 2 32 7 2 0.661
742 151 1 82 1 1 1 36 7 0 0.823
743 151 1 83 2 0 1 32 7 2 0.63
744 151 1 84 3 0 1 32 7 3 0.792
745 151 1 85 0 0 2 41 7 0 0.5
746 151 1 86 3 0 2 31 7 3 0.588
747 151 1 87 2 0 1 34 7 2 0.753
748 151 1 88 0 1 0 34 7 1 0.539
749 151 1 89 1 0 3 31 7 1 0.548
750 151 1 90 1 1 3 31 7 1 0.582
751 151 1 91 2 1 2 31 7 1 0.519
752 151 1 92 3 0 3 31 7 3 0.962
753 151 1 93 0 1 1 31 7 1 0.726
754 151 1 94 0 0 1 31 7 0 0.472
755 151 1 95 3 1 2 35 7 3 0.796
756 151 1 96 1 0 3 33 7 3 0.97
757 151 1 97 0 1 3 34 7 2 1.409
758 151 1 98 0 0 2 31 7 0 0.54
759 151 1 99 1 0 1 36 7 1 0.529
760 151 1 100 1 0 1 32 7 1 0.615
761 151 1 101 2 1 0 32 7 0 0.55
762 151 1 102 2 0 3 34 7 2 0.656
763 151 1 103 2 0 0 31 7 2 0.609
764 151 1 104 0 1 1 36 7 1 0.689
765 151 1 105 2 1 1 32 7 1 0.61
766 151 1 106 0 0 2 31 7 0 0.473
767 151 1 107 1 1 1 31 7 0 0.43
768 151 1 108 3 1 1 33 7 1 0.648
769 151 1 109 0 1 2 33 7 1 0.603
770 151 1 110 1 1 0 32 7 0 0.718
771 151 1 111 3 1 2 35 7 2 0.814
772 151 1 112 3 0 2 31 7 3 0.702
773 151 1 113 1 1 0 34 7 0 0.491
774 151 1 114 3 1 2 36 7 3 1.203
775 151 1 115 1 1 1 35 7 1 0.573
776 151 1 116 3 1 1 34 7 3 0.862
777 151 1 117 3 1 2 31 7 0 0.692
778 151 1 118 2 0 0 31 7 2 0.857
779 151 1 119 3 1 0 33 7 1 0.832
780 151 1 120 1 1 1 34 7 0 0.507
781 151 1 121 1 1 3 31 7 1 0.706
782 151 1 122 0 1 1 34 7 0 0.542
783 151 1 123 2 1 0 31 7 1 0.593
784 151 1 124 0 1 3 33 7 2 0.694
785 151 1 125 2 1 3 31 7 2 1.11
786 151 1 126 2 0 1 33 7 2 0.519
787 151 1 127 0 0 0 35 7 0 0.429
788 151 2 128 0 1 1 37 7 0 0.433
789 151 2 129 2 1 1 33 7 2 0.775
790 151 2 130 2 1 1 33 7 0 0.48
791 151 2 131 0 1 3 31 7 2 0.919
792 151 2 132 2 1 1 31 7 2 0.496
793 151 2 133 3 0 2 31 7 3 0.775
794 151 2 134 1 0 0 36 7 0 0.437
795 151 2 135 1 1 0 32 7 0 0.462
796 151 2 136 2 1 0 34 7 0 0.487
797 151 2 137 2 0 3 32 7 2 0.418
798 151 2 138 0 0 1 35 7 2 0.685
799 151 2 139 2 0 0 35 7 2 0.625
800 151 2 140 2 0 0 31 7 2 0.532
801 151 2 141 0 0 3 32 7 1 0.585
802 151 2 142 3 1 2 32 7 0 0.878
803 151 2 143 3 0 0 32 7 3 0.892
804 151 2 144 1 1 2 31 7 1 0.658
805 151 2 145 0 0 0 34 7 1 0.563
806 151 2 146 1 0 3 32 7 1 0.475
807 151 2 147 1 0 0 34 7 1 0.419
808 151 2 148 1 1 0 31 7 0 0.634
809 151 2 149 1 1 2 31 7 2 0.989
810 151 2 150 3 1 0 31 7 3 0.947
811 151 2 151 1 0 1 34 7 1 0.666
812 151 2 152 2 0 1 32 7 2 1.035
813 151 2 153 0 1 1 34 7 1 0.508
814 151 2 154 0 0 0 37 7 0 0.471
815 151 2 155 2 1 2 34 7 0 0.572
816 151 2 156 1 0 1 33 7 1 0.435
817 151 2 157 0 0 1 31 7 0 0.493
818 151 2 158 1 1 1 31 7 1 0.657
819 151 2 159 0 1 3 33 7 1 0.847
820 151 2 160 2 0 0 31 7 1 0.414
821 151 2 161 0 1 1 38 7 0 0.472
822 151 2 162 2 1 3 31 7 0 0.573
823 151 2 163 0 1 2 32 7 2 0.753
824 151 2 164 2 1 0 35 7 2 0.736
825 151 2 165 2 0 3 37 7 2 0.526
826 151 2 166 3 1 3 32 7 0 0.673
827 151 2 167 3 1 1 32 7 2 0.674
828 151 2 168 3 1 3 31 7 1 0.915
829 151 2 169 1 0 3 34 7 2 1.104
830 151 2 170 3 0 0 31 7 3 0.774
831 151 2 171 3 1 0 32 7 3 0.943
832 151 2 172 0 1 0 34 7 0 0.466
833 151 2 173 3 1 0 32 7 0 0.471
834 151 2 174 3 0 1 31 7 3 0.883
835 151 2 175 1 1 3 31 7 1 0.81
836 151 2 176 0 0 1 35 7 0 0.485
837 151 2 177 1 0 2 31 7 1 0.461
838 151 2 178 2 1 2 34 7 0 0.706
839 151 2 179 0 1 3 31 7 1 0.625
840 151 2 180 0 0 0 33 7 3 0.68
841 151 2 181 2 1 1 31 7 1 0.554
842 151 2 182 2 0 2 31 7 1 0.658
843 151 2 183 0 0 2 32 7 2 0.487
844 151 2 184 0 0 3 31 7 2 1.106
845 151 2 185 3 0 2 31 7 3 0.824
846 151 2 186 2 0 2 34 7 2 0.82
847 151 2 187 3 1 0 31 7 3 0.765
848 151 2 188 1 0 3 42 7 1 0.698
849 151 2 189 1 1 1 36 7 1 0.678
850 151 2 190 1 0 1 36 7 1 0.47
851 151 2 191 1 1 3 34 7 0 0.62
852 151 3 192 1 1 3 33 7 2 0.955
853 151 3 193 3 0 3 31 7 3 0.645
854 151 3 194 0 1 2 32 7 1 0.691
855 151 3 195 1 1 0 32 7 1 0.612
856 151 3 196 0 1 3 31 7 3 0.836
857 151 3 197 0 0 2 32 7 3 0.724
858 151 3 198 0 1 1 31 7 0 0.418
859 151 3 199 2 0 3 38 7 2 0.973
860 151 3 200 0 1 2 33 7 0 0.91
861 151 3 201 3 0 3 34 7 3 0.631
862 151 3 202 1 0 1 33 7 1 0.681
863 151 3 203 1 1 2 31 7 1 0.598
864 151 3 204 1 1 3 32 7 1 0.486
865 151 3 205 1 1 1 31 7 1 0.507
866 151 3 206 2 0 1 32 7 2 0.738
867 151 3 207 1 1 3 33 7 2 0.782
868 151 3 208 1 0 2 39 7 2 0.83
869 151 3 209 1 0 2 33 7 2 0.445
870 151 3 210 3 1 1 33 7 3 0.773
871 151 3 211 1 0 0 32 7 1 0.867
872 151 3 212 3 0 2 33 7 3 0.59
873 151 3 213 0 1 2 31 7 1 0.574
874 151 3 214 3 1 2 32 7 3 0.498
875 151 3 215 3 1 1 33 7 3 0.773
876 151 3 216 2 0 3 31 7 3 0.643
877 151 3 217 1 1 3 32 7 3 0.87
878 151 3 218 2 1 0 31 7 0 0.624
879 151 3 219 2 0 0 32 7 2 0.758
880 151 3 220 1 1 1 35 7 1 0.577
881 151 3 221 3 0 3 33 7 3 0.63
882 151 3 222 0 0 0 31 7 0 0.425
883 151 3 223 2 1 0 35 7 0 0.416
884 151 3 224 1 0 3 33 7 2 0.75
885 151 3 225 2 1 0 34 7 0 0.587
886 151 3 226 2 0 2 31 7 2 0.915
887 151 3 227 1 1 2 35 7 0 0.585
888 151 3 228 1 1 2 31 7 2 0.38
889 151 3 229 2 0 0 31 7 0 0.028
890 151 3 230 3 1 1 32 7 3 0.756
891 151 3 231 0 0 0 33 7 0 0.467
892 151 3 232 2 1 2 31 7 2 2.385
893 151 3 233 3 1 0 31 7 0 0.546
894 151 3 234 3 0 1 37 7 3 0.714
895 151 3 235 0 1 0 33 7 0 0.598
896 151 3 236 0 0 1 32 7 0 0.457
897 151 3 237 1 1 1 32 7 0 0.415
898 151 3 238 1 1 0 31 7 1 0.602
899 151 3 239 3 1 3 34 7 3 0.683
900 151 3 240 3 0 2 31 7 -1 0.907
901 151 3 241 3 1 3 31 7 3 0.464
902 151 3 242 3 0 0 32 7 3 0.473
903 151 3 243 3 0 3 33 7 2 0.834
904 151 3 244 0 0 3 31 7 1 0.72
905 151 3 245 2 0 3 32 7 2 1.219
906 151 3 246 3 0 1 38 7 3 0.641
907 151 3 247 3 0 0 31 7 3 0.563
908 151 3 248 3 0 0 31 7 3 0.425
909 151 3 249 2 1 3 31 7 1 0.88
910 151 3 250 3 1 1 32 7 3 0.665
911 151 3 251 3 1 0 31 7 2 1.159
912 151 3 252 3 1 1 34 7 3 0.935
913 151 3 253 2 1 2 36 7 3 0.779
914 151 3 254 1 1 2 38 7 2 0.728
915 151 3 255 2 0 2 35 7 3 0.49
916 151 4 256 3 0 2 32 7 3 0.941
917 151 4 257 2 1 2 32 7 3 0.609
918 151 4 258 3 0 3 37 7 3 0.776
919 151 4 259 1 0 0 37 7 1 1.27
920 151 4 260 0 0 2 31 7 2 0.85
921 151 4 261 2 0 1 32 7 2 0.688
922 151 4 262 3 1 2 32 7 3 0.829
923 151 4 263 3 0 0 32 7 3 0.729
924 151 4 264 3 1 3 32 7 3 0.82
925 151 4 265 1 1 0 36 7 1 0.748
926 151 4 266 0 0 2 33 7 1 0.57
927 151 4 267 3 1 3 31 7 1 0.703
928 151 4 268 2 0 3 35 7 1 0.563
929 151 4 269 1 0 0 31 7 1 0.412
930 151 4 270 3 0 1 31 7 3 0.774
931 151 4 271 3 0 1 31 7 3 0.851
932 151 4 272 0 0 1 36 7 0 0.909
933 151 4 273 3 0 0 36 7 3 0.518
934 151 4 274 2 1 3 40 7 3 0.602
935 151 4 275 3 1 1 35 7 1 0.862
936 151 4 276 0 1 0 38 7 3 1.224
937 151 4 277 0 1 0 31 7 1 0.677
938 151 4 278 0 0 0 35 7 0 0.409
939 151 4 279 3 0 0 37 7 3 0.767
940 151 4 280 1 0 2 31 7 1 0.733
941 151 4 281 3 0 2 31 7 3 1.068
942 151 4 282 0 0 2 37 7 2 0.734
943 151 4 283 1 1 0 33 7 1 0.589
944 151 4 284 2 1 3 35 7 0 0.51
945 151 4 285 3 1 1 38 7 3 0.757
946 151 4 286 1 0 2 31 7 1 0.66
947 151 4 287 0 0 3 38 7 3 0.95
948 151 4 288 0 1 2 34 7 1 0.653
949 151 4 289 2 0 0 31 7 2 1.027
950 151 4 290 1 0 3 32 7 2 1.031
951 151 4 291 0 0 3 32 7 2 0.863
952 151 4 292 3 0 1 32 7 3 0.622
953 151 4 293 2 0 2 32 7 2 0.689
954 151 4 294 0 0 3 34 7 0 0.546
955 151 4 295 3 0 2 36 7 3 0.681
956 151 4 296 1 0 1 35 7 1 0.569
957 151 4 297 2 1 1 33 7 0 0.523
958 151 4 298 3 0 1 31 7 3 0.901
959 151 4 299 1 0 0 31 7 2 0.735
960 151 4 300 2 1 2 31 7 1 0.734
961 151 4 301 3 1 2 33 7 0 1.053
962 151 4 302 2 0 1 35 7 2 0.82
963 151 4 303 1 0 2 31 7 1 0.559
964 151 4 304 2 1 3 31 7 0 0.673
965 151 4 305 1 0 1 31 7 1 0.47
966 151 4 306 1 0 0 31 7 1 0.447
967 151 4 307 1 0 0 32 7 1 0.376
968 151 4 308 1 1 3 32 7 0 0.672
969 151 4 309 0 0 3 32 7 2 0.82
970 151 4 310 0 0 3 32 7 1 0.724
971 151 4 311 0 1 1 32 7 0 0.692
972 151 4 312 0 1 2 33 7 0 0.561
973 151 4 313 1 0 3 32 7 1 0.582
974 151 4 314 3 1 0 31 7 0 0.566
975 151 4 315 3 0 0 32 7 3 0.815
976 151 4 316 0 1 3 32 7 0 0.664
977 151 4 317 2 0 2 31 7 2 0.89
978 151 4 318 1 0 2 31 7 1 0.611
979 151 4 319 0 0 3 31 7 2 0.694
980 154 0 0 0 1 3 31 7 3 1.26
981 154 0 1 1 1 1 32 7 3 1.864
982 154 0 2 2 1 1 33 7 2 1.062
983 154 0 3 1 0 3 41 7 1 0.842
984 154 0 4 2 0 1 31 7 2 1.029
985 154 0 5 2 0 2 31 7 2 1.209
986 154 0 6 1 0 3 35 7 1 0.711
987 154 0 7 1 0 1 31 7 1 0.759
988 154 0 8 2 0 0 31 7 2 0.829
989 154 0 9 0 0 3 35 7 0 0.72
990 154 0 10 1 1 2 37 7 0 1.332
991 154 0 11 3 1 2 32 7 3 1.029
992 154 0 12 1 1 2 35 7 3 1.03
993 154 0 13 3 0 3 31 7 3 0.718
994 154 0 14 0 1 2 31 7 3 1.354
995 154 0 15 3 1 2 34 7 0 1.69
996 154 0 16 0 0 0 31 7 0 0.851
997 154 0 17 0 0 3 31 7 0 0.717
998 154 0 18 1 1 0 34 7 3 1.329
999 154 0 19 0 0 1 32 7 0 0.838
1000 154 0 20 2 0 3 32 7 2 0.745
1001 154 0 21 3 1 0 34 7 1 1.252
1002 154 0 22 3 0 0 31 7 3 1.316
1003 154 0 23 2 1 3 31 7 2 1.186
1004 154 0 24 1 1 2 32 7 3 0.885
1005 154 0 25 3 1 0 31 7 3 0.99
1006 154 0 26 0 1 1 38 7 2 1.96
1007 154 0 27 0 0 1 33 7 3 0.943
1008 154 0 28 0 1 2 31 7 3 0.934
1009 154 0 29 2 0 3 31 7 2 0.737
1010 154 0 30 2 0 1 31 7 2 0.808
1011 154 0 31 2 1 2 32 7 1 1.145
1012 154 0 32 3 1 0 32 7 3 1.113
1013 154 0 33 0 0 2 31 7 0 1.363
1014 154 0 34 3 1 0 34 7 3 1.272
1015 154 0 35 1 0 2 32 7 3 2.475
1016 154 0 36 3 1 2 34 7 3 1.004
1017 154 0 37 1 1 0 32 7 2 1.373
1018 154 0 38 1 0 1 35 7 1 1.041
1019 154 0 39 3 1 3 35 7 3 1.145
1020 154 0 40 3 0 2 31 7 3 0.794
1021 154 0 41 0 1 3 38 7 3 0.858
1022 154 0 42 2 0 2 31 7 2 0.792
1023 154 0 43 0 1 2 34 7 3 0.913
1024 154 0 44 0 0 3 33 7 3 0.629
1025 154 0 45 1 0 1 33 7 1 0.723
1026 154 0 46 1 0 2 36 7 1 0.69
1027 154 0 47 1 0 3 34 7 1 0.707
1028 154 0 48 1 1 1 34 7 2 1.271
1029 154 0 49 1 1 2 31 7 2 1.451
1030 154 0 50 2 1 2 32 7 2 1.224
1031 154 0 51 0 1 2 33 7 3 0.978
1032 154 0 52 0 1 1 33 7 3 0.864
1033 154 0 53 3 1 1 34 7 1 1.322
1034 154 0 54 1 0 0 31 7 1 0.928
1035 154 0 55 2 1 3 31 7 3 0.988
1036 154 0 56 2 1 2 31 7 1 0.938
1037 154 0 57 1 1 3 32 7 2 1.081
1038 154 0 58 0 1 0 40 7 2 1.636
1039 154 0 59 1 0 0 31 7 1 0.742
1040 154 0 60 2 1 1 31 7 3 1.273
1041 154 0 61 0 1 2 33 7 0 1.348
1042 154 0 62 0 1 3 31 7 3 1.122
1043 154 0 63 1 0 0 33 7 2 1.174
1044 154 1 64 3 1 0 33 7 3 1.202
1045 154 1 65 1 0 0 31 7 1 0.824
1046 154 1 66 0 0 1 31 7 0 0.692
1047 154 1 67 1 1 0 34 7 1 0.889
1048 154 1 68 1 1 3 33 7 3 1.094
1049 154 1 69 2 0 2 34 7 2 0.924
1050 154 1 70 3 1 2 32 7 3 0.88
1051 154 1 71 0 1 1 31 7 2 0.991
1052 154 1 72 0 0 2 37 7 0 0.784
1053 154 1 73 3 1 1 31 7 1 0.857
1054 154 1 74 3 0 0 33 7 3 0.919
1055 154 1 75 2 1 1 33 7 2 1.204
1056 154 1 76 1 0 0 33 7 1 0.945
1057 154 1 77 2 0 1 31 7 2 0.736
1058 154 1 78 1 0 2 37 7 1 0.743
1059 154 1 79 2 0 3 31 7 2 0.702
1060 154 1 80 3 0 2 33 7 3 0.901
1061 154 1 81 0 0 1 34 7 0 0.95
1062 154 1 82 1 0 3 33 7 1 0.66
1063 154 1 83 1 0 2 32 7 1 0.766
1064 154 1 84 0 0 3 32 7 0 0.724
1065 154 1 85 3 0 0 31 7 3 1.115
1066 154 1 86 3 1 1 33 7 3 2.009
1067 154 1 87 1 0 3 32 7 1 0.898
1068 154 1 88 1 0 1 34 7 1 0.755
1069 154 1 89 3 0 1 33 7 3 1.041
1070 154 1 90 3 0 2 32 7 3 0.525
1071 154 1 91 3 0 3 35 7 3 0.499
1072 154 1 92 1 0 0 31 7 1 0.851
1073 154 1 93 2 1 2 32 7 3 0.946
1074 154 1 94 1 0 0 34 7 2 0.9
1075 154 1 95 3 0 0 33 7 3 0.617
1076 154 1 96 1 0 1 37 7 1 1.004
1077 154 1 97 1 1 2 32 7 3 1.022
1078 154 1 98 2 1 3 31 7 3 1.394
1079 154 1 99 3 0 3 34 7 3 0.685
1080 154 1 100 1 1 0 31 7 2 1.05
1081 154 1 101 2 0 1 31 7 2 0.817
1082 154 1 102 2 0 2 31 7 2 0.837
1083 154 1 103 3 0 3 33 7 3 0.808
1084 154 1 104 0 0 0 34 7 0 0.78
1085 154 1 105 2 1 3 32 7 3 0.926
1086 154 1 106 0 1 2 35 7 3 0.718
1087 154 1 107 0 1 3 33 7 2 1.333
1088 154 1 108 0 1 2 35 7 3 0.678
1089 154 1 109 1 1 3 36 7 3 1.023
1090 154 1 110 3 0 2 31 7 3 0.591
1091 154 1 111 0 0 0 32 7 0 0.515
1092 154 1 112 2 1 2 35 7 2 1.662
1093 154 1 113 0 0 3 31 7 0 0.593
1094 154 1 114 2 1 1 31 7 2 1.153
1095 154 1 115 0 1 1 33 7 2 1.069
1096 154 1 116 0 0 2 35 7 0 0.579
1097 154 1 117 2 0 0 31 7 2 0.919
1098 154 1 118 2 1 0 31 7 2 1.364
1099 154 1 119 1 1 2 32 7 1 0.921
1100 154 1 120 2 1 0 36 7 2 1.149
1101 154 1 121 3 0 1 33 7 3 1.229
1102 154 1 122 1 1 3 34 7 3 1.103
1103 154 1 123 1 1 2 33 7 2 1
1104 154 1 124 1 1 3 36 7 3 0.773
1105 154 1 125 0 1 0 32 7 0 0.851
1106 154 1 126 1 0 2 32 7 2 1.181
1107 154 1 127 2 1 2 31 7 3 1.116
1108 154 2 128 1 0 3 33 7 3 1.094
1109 154 2 129 3 1 0 31 7 3 1.152
1110 154 2 130 1 1 0 35 7 2 0.941
1111 154 2 131 3 0 3 36 7 3 1.048
1112 154 2 132 2 1 3 32 7 3 0.903
1113 154 2 133 2 0 3 36 7 2 0.78
1114 154 2 134 0 0 2 35 7 3 1.265
1115 154 2 135 3 1 3 32 7 3 0.645
1116 154 2 136 1 0 3 33 7 2 0.919
1117 154 2 137 1 1 2 34 7 2 1.063
1118 154 2 138 1 0 0 36 7 3 1.15
1119 154 2 139 2 1 0 33 7 2 0.981
1120 154 2 140 1 1 0 33 7 2 0.632
1121 154 2 141 0 0 2 32 7 0 0.79
1122 154 2 142 0 1 3 31 7 1 0.88
1123 154 2 143 0 1 1 33 7 2 0.977
1124 154 2 144 0 0 0 34 7 0 0.675
1125 154 2 145 1 1 1 32 7 2 0.873
1126 154 2 146 3 1 2 32 7 3 0.69
1127 154 2 147 3 0 2 31 7 3 0.435
1128 154 2 148 3 0 0 31 7 3 0.436
1129 154 2 149 3 1 0 38 7 2 0.714
1130 154 2 150 2 1 0 34 7 1 0.929
1131 154 2 151 3 1 0 31 7 3 0.834
1132 154 2 152 1 1 3 31 7 3 0.753
1133 154 2 153 2 1 3 33 7 2 0.639
1134 154 2 154 0 0 0 31 7 1 0.841
1135 154 2 155 0 0 2 31 7 0 0.608
1136 154 2 156 0 1 0 33 7 1 0.856
1137 154 2 157 3 1 2 31 7 3 0.994
1138 154 2 158 2 0 3 33 7 2 0.656
1139 154 2 159 3 0 0 33 7 3 0.729
1140 154 2 160 3 0 0 31 7 3 0.497
1141 154 2 161 0 0 2 31 7 0 0.991
1142 154 2 162 3 1 3 31 7 3 0.777
1143 154 2 163 3 1 3 31 7 3 0.555
1144 154 2 164 3 1 2 34 7 3 0.525
1145 154 2 165 0 1 0 31 7 2 0.952
1146 154 2 166 1 1 1 32 7 1 1.126
1147 154 2 167 3 1 0 33 7 3 1.244
1148 154 2 168 2 1 3 32 7 2 1.789
1149 154 2 169 0 0 2 31 7 2 1.406
1150 154 2 170 2 0 3 31 7 2 0.576
1151 154 2 171 1 0 2 33 7 1 0.477
1152 154 2 172 3 1 0 33 7 1 2.106
1153 154 2 173 0 0 0 33 7 3 0.643
1154 154 2 174 1 0 0 34 7 1 0.617
1155 154 2 175 2 1 0 32 7 2 0.824
1156 154 2 176 2 0 2 35 7 1 0.764
1157 154 2 177 0 0 1 31 7 0 1.318
1158 154 2 178 2 1 3 31 7 2 1.188
1159 154 2 179 2 1 3 35 7 2 0.991
1160 154 2 180 3 1 3 41 7 3 0.745
1161 154 2 181 2 0 3 32 7 3 0.823
1162 154 2 182 2 0 0 32 7 2 0.335
1163 154 2 183 1 0 1 33 7 1 0.788
1164 154 2 184 3 0 0 32 7 3 0.617
1165 154 2 185 2 0 1 33 7 2 0.66
1166 154 2 186 0 1 0 34 7 1 0.866
1167 154 2 187 0 1 0 31 7 0 0.892
1168 154 2 188 0 1 3 33 7 1 1.434
1169 154 2 189 1 1 3 34 7 1 0.591
1170 154 2 190 1 1 1 31 7 2 0.696
1171 154 2 191 0 1 1 32 7 2 0.24
1172 154 3 192 2 1 1 31 7 1 1.009
1173 154 3 193 2 1 2 33 7 2 1.182
1174 154 3 194 2 1 3 32 7 2 0.817
1175 154 3 195 3 1 1 34 7 3 0.897
1176 154 3 196 2 0 2 34 7 2 1.082
1177 154 3 197 2 0 2 43 7 2 0.828
1178 154 3 198 3 0 3 35 7 3 0.712
1179 154 3 199 3 1 1 32 7 3 0.748
1180 154 3 200 0 1 0 34 7 2 0.855
1181 154 3 201 0 1 1 32 7 0 0.858
1182 154 3 202 0 0 1 32 7 0 0.404
1183 154 3 203 1 1 0 34 7 1 0.755
1184 154 3 204 1 1 0 32 7 1 0.653
1185 154 3 205 1 0 0 32 7 1 0.567
1186 154 3 206 0 0 1 31 7 0 0.531
1187 154 3 207 0 1 0 36 7 0 0.854
1188 154 3 208 0 0 0 31 7 0 0.529
1189 154 3 209 0 1 1 31 7 0 0.563
1190 154 3 210 3 1 1 31 7 3 1.629
1191 154 3 211 0 0 1 34 7 0 0.74
1192 154 3 212 0 1 0 31 7 1 0.743
1193 154 3 213 3 0 2 38 7 3 2.113
1194 154 3 214 2 0 3 32 7 2 1.039
1195 154 3 215 0 0 2 33 7 0 1.162
1196 154 3 216 0 1 0 33 7 1 1.014
1197 154 3 217 2 0 2 35 7 2 0.783
1198 154 3 218 3 1 1 35 7 0 1.336
1199 154 3 219 1 0 2 37 7 2 0.965
1200 154 3 220 3 1 3 32 7 3 0.78
1201 154 3 221 3 1 2 32 7 3 0.646
1202 154 3 222 0 0 3 35 7 2 0.736
1203 154 3 223 0 0 1 31 7 0 0.466
1204 154 3 224 0 1 3 31 7 2 1.023
1205 154 3 225 2 0 0 31 7 2 1.023
1206 154 3 226 1 1 3 31 7 2 1.352
1207 154 3 227 1 1 0 31 7 1 0.873
1208 154 3 228 1 1 1 33 7 0 0.639
1209 154 3 229 3 0 1 34 7 3 0.829
1210 154 3 230 0 1 2 33 7 3 1.253
1211 154 3 231 2 1 0 31 7 1 0.545
1212 154 3 232 2 0 0 34 7 2 0.706
1213 154 3 233 3 1 3 33 7 3 0.781
1214 154 3 234 2 1 1 31 7 1 0.975
1215 154 3 235 2 0 1 37 7 2 0.745
1216 154 3 236 3 0 3 31 7 3 0.735
1217 154 3 237 3 0 1 31 7 3 0.438
1218 154 3 238 2 0 1 32 7 2 0.663
1219 154 3 239 2 1 1 31 7 1 0.981
1220 154 3 240 2 0 0 33 7 2 1.031
1221 154 3 241 3 1 3 31 7 3 0.752
1222 154 3 242 1 0 1 35 7 1 0.814
1223 154 3 243 2 0 1 35 7 1 1.362
1224 154 3 244 1 1 0 31 7 2 0.867
1225 154 3 245 1 1 1 31 7 1 0.877
1226 154 3 246 0 0 2 31 7 0 0.487
1227 154 3 247 3 0 1 33 7 3 0.75
1228 154 3 248 0 0 3 32 7 3 0.764
1229 154 3 249 3 0 1 33 7 3 0.446
1230 154 3 250 1 1 2 36 7 2 0.827
1231 154 3 251 1 0 1 31 7 1 0.522
1232 154 3 252 1 0 3 31 7 1 0.609
1233 154 3 253 3 0 1 35 7 3 0.764
1234 154 3 254 3 1 1 31 7 3 0.759
1235 154 3 255 1 0 2 31 7 1 0.789
1236 154 4 256 3 1 2 32 7 3 0.893
1237 154 4 257 1 1 3 35 7 3 0.747
1238 154 4 258 2 1 2 31 7 3 0.746
1239 154 4 259 2 0 0 33 7 2 1.116
1240 154 4 260 1 0 3 31 7 2 3.293
1241 154 4 261 2 0 0 35 7 2 0.555
1242 154 4 262 3 1 1 31 7 3 0.973
1243 154 4 263 0 1 2 34 7 3 1.072
1244 154 4 264 1 0 1 34 7 1 0.654
1245 154 4 265 2 1 1 32 7 0 1.188
1246 154 4 266 3 1 3 33 7 3 1.058
1247 154 4 267 1 1 2 31 7 3 2.066
1248 154 4 268 0 0 1 31 7 0 0.477
1249 154 4 269 2 0 3 31 7 3 0.861
1250 154 4 270 3 0 2 31 7 3 0.651
1251 154 4 271 0 1 1 31 7 1 1.105
1252 154 4 272 3 0 3 32 7 3 0.774
1253 154 4 273 0 1 2 33 7 3 0.968
1254 154 4 274 0 0 0 31 7 1 1.137
1255 154 4 275 1 1 3 32 7 3 0.778
1256 154 4 276 3 0 3 33 7 3 0.491
1257 154 4 277 3 0 0 36 7 3 0.53
1258 154 4 278 2 0 0 31 7 1 1.705
1259 154 4 279 0 0 3 37 7 0 0.552
1260 154 4 280 0 1 3 35 7 3 0.826
1261 154 4 281 0 0 3 31 7 2 0.897
1262 154 4 282 1 1 1 32 7 0 1.21
1263 154 4 283 1 0 3 31 7 1 0.82
1264 154 4 284 2 0 2 31 7 2 0.727
1265 154 4 285 2 1 0 33 7 3 1.099
1266 154 4 286 2 1 0 35 7 0 0.621
1267 154 4 287 2 0 0 31 7 2 0.899
1268 154 4 288 2 1 0 31 7 2 0.608
1269 154 4 289 3 0 2 31 7 3 1.22
1270 154 4 290 3 0 1 31 7 3 0.945
1271 154 4 291 2 0 2 33 7 2 0.713
1272 154 4 292 2 1 1 31 7 0 1.868
1273 154 4 293 1 1 1 31 7 0 2.626
1274 154 4 294 3 0 1 37 7 3 0.793
1275 154 4 295 1 1 1 32 7 2 0.922
1276 154 4 296 0 1 3 36 7 1 1.05
1277 154 4 297 3 1 2 38 7 3 0.861
1278 154 4 298 0 1 1 34 7 2 1.196
1279 154 4 299 3 0 1 34 7 3 1.446
1280 154 4 300 2 1 2 33 7 2 1.024
1281 154 4 301 3 0 2 31 7 3 1.261
1282 154 4 302 3 1 3 32 7 3 0.789
1283 154 4 303 2 1 0 37 7 3 0.855
1284 154 4 304 3 0 0 31 7 3 0.533
1285 154 4 305 3 0 3 32 7 3 0.947
1286 154 4 306 0 0 0 32 7 0 0.754
1287 154 4 307 2 1 1 31 7 1 1.501
1288 154 4 308 3 0 2 31 7 3 0.644
1289 154 4 309 1 0 2 32 7 1 0.846
1290 154 4 310 0 0 3 34 7 2 0.673
1291 154 4 311 2 0 1 32 7 2 0.477
1292 154 4 312 2 1 2 33 7 3 1.202
1293 154 4 313 3 1 1 32 7 3 0.648
1294 154 4 314 1 0 2 33 7 3 1.266
1295 154 4 315 2 0 1 36 7 2 0.521
1296 154 4 316 1 0 1 31 7 1 0.695
1297 154 4 317 0 0 0 31 7 3 1.072
1298 154 4 318 0 1 3 32 7 3 0.602
1299 154 4 319 2 0 3 32 7 2 0.601
1300 157 0 0 3 0 2 31 7 3 1.062
1301 157 0 1 3 0 1 36 7 3 0.905
1302 157 0 2 0 0 2 32 7 0 0.769
1303 157 0 3 2 0 0 32 7 2 0.942
1304 157 0 4 0 0 0 31 7 0 0.821
1305 157 0 5 0 1 3 33 7 1 1.26
1306 157 0 6 2 1 2 32 7 1 1.048
1307 157 0 7 2 1 3 33 7 1 0.891
1308 157 0 8 3 0 1 32 7 3 0.999
1309 157 0 9 1 0 2 31 7 1 0.924
1310 157 0 10 3 0 1 31 7 3 1.011
1311 157 0 11 3 1 3 34 7 3 1.06
1312 157 0 12 1 1 3 32 7 1 1.155
1313 157 0 13 1 1 1 38 7 1 0.991
1314 157 0 14 3 1 1 32 7 3 0.928
1315 157 0 15 1 1 3 33 7 3 0.948
1316 157 0 16 1 0 1 32 7 1 1.07
1317 157 0 17 3 0 0 31 7 3 0.945
1318 157 0 18 0 0 0 31 7 0 0.839
1319 157 0 19 3 0 0 32 7 3 1.074
1320 157 0 20 1 0 0 31 7 1 0.788
1321 157 0 21 0 0 3 35 7 0 0.736
1322 157 0 22 2 1 0 34 7 3 1.146
1323 157 0 23 2 1 1 32 7 2 1.05
1324 157 0 24 0 0 1 31 7 0 0.861
1325 157 0 25 3 0 2 31 7 3 0.855
1326 157 0 26 1 0 0 32 7 1 0.849
1327 157 0 27 1 1 3 31 7 2 0.935
1328 157 0 28 1 1 0 31 7 3 0.91
1329 157 0 29 3 1 0 31 7 2 0.822
1330 157 0 30 3 1 3 39 7 3 0.881
1331 157 0 31 1 1 1 32 7 1 1.047
1332 157 0 32 1 0 3 31 7 1 0.794
1333 157 0 33 0 0 2 31 7 0 0.807
1334 157 0 34 1 1 2 35 7 1 0.863
1335 157 0 35 3 1 1 31 7 3 1.061
1336 157 0 36 3 0 2 31 7 3 0.824
1337 157 0 37 0 1 3 32 7 2 0.767
1338 157 0 38 1 1 3 33 7 2 0.876
1339 157 0 39 2 0 3 33 7 2 0.841
1340 157 0 40 2 0 3 36 7 2 0.788
1341 157 0 41 0 1 3 32 7 0 0.796
1342 157 0 42 3 1 3 32 7 3 0.837
1343 157 0 43 0 0 3 32 7 0 0.879
1344 157 0 44 1 1 2 32 7 3 0.868
1345 157 0 45 0 0 2 36 7 0 0.801
1346 157 0 46 2 0 2 33 7 2 0.972
1347 157 0 47 2 0 3 31 7 2 0.802
1348 157 0 48 3 0 2 33 7 3 0.846
1349 157 0 49 1 1 2 33 7 2 0.836
1350 157 0 50 3 1 3 33 7 3 0.783
1351 157 0 51 1 1 0 33 7 3 1.224
1352 157 0 52 2 1 0 32 7 2 0.773
1353 157 0 53 1 0 2 32 7 1 0.962
1354 157 0 54 2 1 2 39 7 2 0.868
1355 157 0 55 3 0 1 32 7 3 0.798
1356 157 0 56 3 1 3 35 7 1 0.886
1357 157 0 57 2 0 2 35 7 2 0.962
1358 157 0 58 1 0 1 34 7 1 0.841
1359 157 0 59 2 1 1 31 7 1 0.8
1360 157 0 60 1 1 2 32 7 1 0.764
1361 157 0 61 2 0 1 34 7 2 5.849
1362 157 0 62 0 0 3 32 7 0 0.912
1363 157 0 63 3 0 2 31 7 3 0.936
1364 157 1 64 3 1 2 33 7 3 1.212
1365 157 1 65 3 0 2 32 7 3 0.777
1366 157 1 66 0 0 0 32 7 0 0.774
1367 157 1 67 1 1 0 31 7 1 1.055
1368 157 1 68 1 0 1 32 7 1 0.801
1369 157 1 69 3 0 1 31 7 3 0.957
1370 157 1 70 3 0 0 34 7 3 0.771
1371 157 1 71 2 0 1 31 7 2 0.816
1372 157 1 72 2 1 1 36 7 1 1.128
1373 157 1 73 1 1 0 31 7 1 0.792
1374 157 1 74 0 1 3 35 7 1 0.897
1375 157 1 75 1 0 3 31 7 1 0.829
1376 157 1 76 2 1 3 41 7 2 1.108
1377 157 1 77 1 0 2 37 7 1 0.885
1378 157 1 78 2 1 0 33 7 2 0.967
1379 157 1 79 0 0 3 41 7 0 0.797
1380 157 1 80 1 0 3 31 7 1 0.777
1381 157 1 81 3 0 2 31 7 3 0.886
1382 157 1 82 1 0 0 31 7 1 0.783
1383 157 1 83 0 1 1 35 7 2 1.064
1384 157 1 84 1 0 2 32 7 1 0.798
1385 157 1 85 0 1 0 32 7 1 0.791
1386 157 1 86 0 1 2 32 7 0 0.835
1387 157 1 87 1 0 1 32 7 1 0.733
1388 157 1 88 3 0 2 32 7 3 0.972
1389 157 1 89 2 1 2 31 7 1 0.798
1390 157 1 90 1 0 2 32 7 1 0.686
1391 157 1 91 0 0 1 33 7 0 0.75
1392 157 1 92 0 0 1 32 7 0 0.636
1393 157 1 93 3 1 1 31 7 1 0.826
1394 157 1 94 2 1 3 35 7 0 0.741
1395 157 1 95 0 0 2 32 7 0 0.695
1396 157 1 96 3 0 2 31 7 3 1.015
1397 157 1 97 3 0 0 31 7 3 0.635
1398 157 1 98 2 0 3 31 7 2 0.844
1399 157 1 99 0 1 2 34 7 1 0.829
1400 157 1 100 0 1 3 31 7 0 0.76
1401 157 1 101 1 0 1 32 7 1 0.789
1402 157 1 102 3 0 1 31 7 3 0.85
1403 157 1 103 0 1 1 32 7 1 0.888
1404 157 1 104 0 1 2 31 7 0 0.784
1405 157 1 105 1 0 1 31 7 1 0.797
1406 157 1 106 3 0 3 38 7 3 0.953
1407 157 1 107 1 1 0 34 7 1 0.86
1408 157 1 108 0 0 3 31 7 0 0.694
1409 157 1 109 2 0 2 41 7 2 0.886
1410 157 1 110 0 0 0 32 7 0 0.766
1411 157 1 111 1 0 3 32 7 1 0.811
1412 157 1 112 3 1 0 31 7 2 0.995
1413 157 1 113 3 1 0 31 7 1 0.856
1414 157 1 114 3 1 3 31 7 0 0.77
1415 157 1 115 3 1 0 31 7 2 0.879
1416 157 1 116 1 0 0 31 7 1 0.844
1417 157 1 117 3 0 3 31 7 3 0.886
1418 157 1 118 2 0 0 34 7 2 0.927
1419 157 1 119 3 1 0 31 7 1 1.043
1420 157 1 120 0 0 1 32 7 0 0.766
1421 157 1 121 2 0 3 35 7 1 0.843
1422 157 1 122 2 1 3 33 7 0 0.949
1423 157 1 123 1 0 0 31 7 1 3.76
1424 157 1 124 3 1 3 34 7 0 1.022
1425 157 1 125 2 0 0 31 7 2 0.87
1426 157 1 126 3 0 0 31 7 3 0.863
1427 157 1 127 2 0 0 31 7 2 0.825
1428 157 2 128 0 1 1 32 7 2 1.289
1429 157 2 129 0 1 0 31 7 1 0.788
1430 157 2 130 1 1 1 32 7 1 1.046
1431 157 2 131 2 1 1 31 7 3 1.094
1432 157 2 132 1 1 3 31 7 0 0.904
1433 157 2 133 0 1 3 45 7 0 0.544
1434 157 2 134 0 0 2 31 7 0 0.677
1435 157 2 135 3 1 0 32 7 0 0.498
1436 157 2 136 1 0 2 35 7 0 0.508
1437 157 2 137 0 0 1 39 7 0 0.646
1438 157 2 138 3 0 3 34 7 3 1.016
1439 157 2 139 2 1 1 31 7 1 1.049
1440 157 2 140 3 1 1 33 7 1 0.748
1441 157 2 141 0 1 0 31 7 0 0.778
1442 157 2 142 0 1 0 35 7 0 0.419
1443 157 2 143 1 1 2 33 7 1 0.985
1444 157 2 144 0 1 3 32 7 0 0.634
1445 157 2 145 3 1 2 34 7 1 0.696
1446 157 2 146 0 0 0 31 7 0 0.555
1447 157 2 147 2 0 1 38 7 3 0.912
1448 157 2 148 1 0 0 33 7 1 0.876
1449 157 2 149 2 1 2 32 7 1 0.993
1450 157 2 150 3 0 0 31 7 3 1.018
1451 157 2 151 3 0 0 33 7 3 0.638
1452 157 2 152 0 0 2 31 7 0 0.575
1453 157 2 153 0 0 3 31 7 0 0.483
1454 157 2 154 1 0 3 32 7 1 1.099
1455 157 2 155 2 1 3 31 7 3 0.696
1456 157 2 156 0 0 2 33 7 0 0.667
1457 157 2 157 2 1 0 32 7 2 0.953
1458 157 2 158 1 0 3 33 7 1 0.831
1459 157 2 159 2 0 1 32 7 0 0.65
1460 157 2 160 0 1 2 31 7 0 0.652
1461 157 2 161 3 0 3 31 7 3 0.765
1462 157 2 162 3 0 1 31 7 3 0.747
1463 157 2 163 2 0 3 34 7 2 0.905
1464 157 2 164 2 0 0 34 7 2 0.721
1465 157 2 165 2 0 0 31 7 2 0.815
1466 157 2 166 1 0 1 32 7 1 0.987
1467 157 2 167 3 1 1 33 7 3 0.924
1468 157 2 168 0 0 3 31 7 0 0.5
1469 157 2 169 3 0 3 35 7 3 0.731
1470 157 2 170 1 1 0 31 7 1 0.87
1471 157 2 171 0 0 2 34 7 0 0.559
1472 157 2 172 2 1 3 31 7 0 0.496
1473 157 2 173 2 1 2 31 7 0 0.511
1474 157 2 174 0 0 1 34 7 0 0.488
1475 157 2 175 2 0 2 38 7 2 0.719
1476 157 2 176 2 0 0 31 7 2 0.67
1477 157 2 177 1 0 2 31 7 1 0.958
1478 157 2 178 0 1 2 32 7 0 0.769
1479 157 2 179 0 1 0 36 7 0 0.618
1480 157 2 180 0 0 1 35 7 0 0.556
1481 157 2 181 1 1 0 33 7 0 0.493
1482 157 2 182 3 1 2 31 7 3 1.05
1483 157 2 183 3 0 0 34 7 3 0.781
1484 157 2 184 0 0 3 34 7 0 0.474
1485 157 2 185 1 1 2 32 7 0 0.574
1486 157 2 186 3 0 1 32 7 3 1.125
1487 157 2 187 1 1 2 31 7 2 0.914
1488 157 2 188 3 0 2 31 7 3 0.749
1489 157 2 189 0 1 1 33 7 0 0.744
1490 157 2 190 0 1 0 31 7 1 0.834
1491 157 2 191 3 1 3 32 7 3 0.925
1492 157 3 192 0 0 0 31 7 0 0.721
1493 157 3 193 0 1 2 31 7 0 0.54
1494 157 3 194 1 1 2 34 7 0 0.398
1495 157 3 195 2 0 1 31 7 0 0.556
1496 157 3 196 3 1 2 32 7 0 0.608
1497 157 3 197 0 0 1 32 7 0 0.486
1498 157 3 198 3 0 3 32 7 3 1.133
1499 157 3 199 3 1 2 31 7 3 0.873
1500 157 3 200 1 0 2 31 7 1 0.867
1501 157 3 201 2 1 1 33 7 3 0.632
1502 157 3 202 2 1 3 31 7 0 0.57
1503 157 3 203 3 0 3 33 7 3 0.834
1504 157 3 204 0 0 2 33 7 0 0.444
1505 157 3 205 0 1 0 36 7 0 0.61
1506 157 3 206 2 1 2 32 7 0 0.449
1507 157 3 207 2 1 3 31 7 3 0.745
1508 157 3 208 3 0 0 34 7 3 0.651
1509 157 3 209 1 1 3 31 7 0 0.392
1510 157 3 210 2 1 0 50 7 2 0.975
1511 157 3 211 3 1 3 34 7 2 0.721
1512 157 3 212 0 1 1 32 7 3 3.12
1513 157 3 213 0 0 3 33 7 0 0.477
1514 157 3 214 1 1 1 33 7 3 0.64
1515 157 3 215 2 1 1 32 7 0 0.434
1516 157 3 216 3 0 3 33 7 3 1.007
1517 157 3 217 1 0 0 35 7 1 1.139
1518 157 3 218 3 0 3 31 7 3 0.771
1519 157 3 219 0 1 1 35 7 1 0.796
1520 157 3 220 1 1 3 36 7 3 0.777
1521 157 3 221 1 0 0 31 7 1 0.905
1522 157 3 222 1 0 2 31 7 1 0.689
1523 157 3 223 0 1 2 32 7 1 0.557
1524 157 3 224 2 0 0 32 7 0 0.789
1525 157 3 225 0 1 1 32 7 3 0.545
1526 157 3 226 2 0 1 33 7 2 0.794
1527 157 3 227 2 0 2 35 7 0 0.47
1528 157 3 228 3 1 2 31 7 2 0.766
1529 157 3 229 1 1 1 33 7 2 0.603
1530 157 3 230 2 1 2 37 7 0 0.558
1531 157 3 231 0 0 0 32 7 0 0.87
1532 157 3 232 2 0 1 31 7 1 0.863
1533 157 3 233 3 1 1 35 7 1 1.273
1534 157 3 234 3 1 0 32 7 0 0.564
1535 157 3 235 0 0 1 45 7 0 0.988
1536 157 3 236 3 1 0 32 7 0 0.606
1537 157 3 237 2 0 1 35 7 2 0.932
1538 157 3 238 1 1 2 31 7 0 0.952
1539 157 3 239 1 1 1 31 7 1 0.83
1540 157 3 240 3 1 2 36 7 3 1.062
1541 157 3 241 2 1 0 31 7 2 1.205
1542 157 3 242 2 0 1 32 7 2 0.834
1543 157 3 243 2 1 1 33 7 1 0.826
1544 157 3 244 0 1 2 33 7 0 0.853
1545 157 3 245 2 0 2 34 7 0 1.086
1546 157 3 246 2 0 2 35 7 1 1.011
1547 157 3 247 2 1 0 33 7 0 0.888
1548 157 3 248 1 1 1 31 7 0 0.865
1549 157 3 249 1 0 0 31 7 1 0.766
1550 157 3 250 3 1 2 37 7 1 0.808
1551 157 3 251 1 1 0 35 7 2 1.171
1552 157 3 252 1 1 0 32 7 0 0.802
1553 157 3 253 0 1 3 34 7 0 0.654
1554 157 3 254 1 0 1 31 7 1 0.847
1555 157 3 255 3 1 3 32 7 2 0.853
1556 157 4 256 3 1 2 37 7 3 1.362
1557 157 4 257 1 0 3 32 7 0 1.019
1558 157 4 258 1 1 1 32 7 1 0.782
1559 157 4 259 3 1 1 31 7 3 1.207
1560 157 4 260 1 0 1 32 7 1 1.092
1561 157 4 261 3 1 2 32 7 3 0.802
1562 157 4 262 1 1 1 34 7 1 0.874
1563 157 4 263 0 1 0 33 7 1 0.944
1564 157 4 264 3 0 3 31 7 3 0.89
1565 157 4 265 2 0 3 37 7 0 0.979
1566 157 4 266 2 0 2 33 7 2 0.986
1567 157 4 267 3 1 1 31 7 3 0.892
1568 157 4 268 2 0 2 32 7 2 0.933
1569 157 4 269 2 1 3 31 7 3 0.984
1570 157 4 270 2 0 2 33 7 2 0.85
1571 157 4 271 3 0 0 32 7 3 0.78
1572 157 4 272 1 1 3 33 7 3 0.725
1573 157 4 273 2 1 2 31 7 1 0.772
1574 157 4 274 1 1 3 43 7 1 0.785
1575 157 4 275 1 0 3 36 7 1 0.605
1576 157 4 276 2 1 0 32 7 2 0.956
1577 157 4 277 1 1 0 35 7 1 0.879
1578 157 4 278 2 1 0 32 7 1 0.496
1579 157 4 279 2 0 3 33 7 0 0.762
1580 157 4 280 3 0 1 33 7 3 0.843
1581 157 4 281 1 1 3 32 7 1 1.026
1582 157 4 282 0 1 1 36 7 1 1.01
1583 157 4 283 2 1 2 38 7 1 1.015
1584 157 4 284 0 0 0 31 7 0 0.735
1585 157 4 285 1 0 1 33 7 1 0.765
1586 157 4 286 1 1 1 33 7 2 0.983
1587 157 4 287 2 1 0 34 7 1 0.684
1588 157 4 288 0 0 2 34 7 0 0.608
1589 157 4 289 0 1 1 37 7 2 0.911
1590 157 4 290 2 0 0 45 7 0 0.602
1591 157 4 291 2 1 1 34 7 1 0.766
1592 157 4 292 0 0 0 31 7 0 0.558
1593 157 4 293 1 0 2 31 7 0 0.498
1594 157 4 294 0 0 3 31 7 1 0.445
1595 157 4 295 1 0 0 33 7 0 0.681
1596 157 4 296 3 0 1 31 7 3 0.957
1597 157 4 297 0 1 0 31 7 0 0.511
1598 157 4 298 2 1 1 32 7 2 1.042
1599 157 4 299 0 1 1 31 7 0 0.546
1600 157 4 300 2 0 1 35 7 2 0.999
1601 157 4 301 2 0 3 31 7 3 0.796
1602 157 4 302 2 1 2 31 7 1 0.792
1603 157 4 303 1 1 2 33 7 2 1.332
1604 157 4 304 1 0 3 31 7 0 0.833
1605 157 4 305 0 1 2 32 7 0 0.812
1606 157 4 306 2 0 3 35 7 1 0.727
1607 157 4 307 0 0 1 32 7 0 0.698
1608 157 4 308 3 1 0 33 7 3 0.806
1609 157 4 309 3 1 1 32 7 3 0.686
1610 157 4 310 3 1 1 31 7 3 0.522
1611 157 4 311 2 0 0 34 7 1 0.752
1612 157 4 312 0 1 2 33 7 3 0.477
1613 157 4 313 3 1 0 36 7 2 0.661
1614 157 4 314 0 1 3 31 7 2 0.982
1615 157 4 315 0 1 0 31 7 1 0.731
1616 157 4 316 1 0 3 34 7 0 0.541
1617 157 4 317 0 1 3 34 7 1 0.802
1618 157 4 318 0 0 0 31 7 0 0.561
1619 157 4 319 2 1 3 33 7 2 1.042
1620 159 0 0 1 1 0 31 7 0 1.88
1621 159 0 1 1 0 1 33 7 1 0.768
1622 159 0 2 1 1 1 32 7 1 0.985
1623 159 0 3 3 0 2 32 7 3 1.117
1624 159 0 4 3 1 0 32 7 3 1.025
1625 159 0 5 0 0 2 34 7 0 0.788
1626 159 0 6 3 0 0 34 7 3 0.952
1627 159 0 7 1 1 3 32 7 1 0.906
1628 159 0 8 2 0 3 39 7 2 0.762
1629 159 0 9 0 0 3 34 7 0 0.662
1630 159 0 10 2 0 0 33 7 2 0.839
1631 159 0 11 1 1 2 31 7 1 0.765
1632 159 0 12 1 1 3 32 7 0 0.654
1633 159 0 13 0 0 3 32 7 0 0.586
1634 159 0 14 1 0 2 32 7 1 0.573
1635 159 0 15 2 1 2 32 7 2 0.741
1636 159 0 16 1 1 1 40 7 2 0.623
1637 159 0 17 2 1 0 31 7 1 0.576
1638 159 0 18 2 0 0 36 7 2 0.879
1639 159 0 19 3 1 3 31 7 3 1.156
1640 159 0 20 1 1 2 33 7 1 0.775
1641 159 0 21 1 0 0 33 7 3 1.179
1642 159 0 22 2 0 2 32 7 2 0.797
1643 159 0 23 2 0 3 35 7 2 0.488
1644 159 0 24 3 1 3 38 7 3 0.971
1645 159 0 25 0 1 0 32 7 3 0.821
1646 159 0 26 0 1 0 33 7 2 0.783
1647 159 0 27 3 0 2 32 7 3 0.775
1648 159 0 28 1 0 1 32 7 1 0.699
1649 159 0 29 1 0 3 33 7 1 0.562
1650 159 0 30 1 1 3 32 7 0 0.906
1651 159 0 31 3 0 3 36 7 2 0.709
1652 159 0 32 2 1 0 33 7 3 0.716
1653 159 0 33 0 0 1 35 7 0 0.574
1654 159 0 34 3 1 2 37 7 3 1.062
1655 159 0 35 0 1 3 32 7 0 0.812
1656 159 0 36 0 0 2 33 7 0 0.542
1657 159 0 37 3 1 0 31 7 2 0.791
1658 159 0 38 3 0 0 31 7 3 0.87
1659 159 0 39 3 1 0 32 7 3 0.619
1660 159 0 40 2 0 1 32 7 2 0.861
1661 159 0 41 0 1 0 34 7 3 0.698
1662 159 0 42 2 1 1 32 7 3 0.713
1663 159 0 43 0 1 1 31 7 1 0.568
1664 159 0 44 2 0 1 32 7 2 0.736
1665 159 0 45 2 1 2 31 7 2 0.737
1666 159 0 46 0 0 2 31 7 0 0.591
1667 159 0 47 1 1 3 32 7 2 0.79
1668 159 0 48 3 1 0 31 7 2 0.586
1669 159 0 49 3 0 2 32 7 3 0.552
1670 159 0 50 2 1 2 34 7 3 0.68
1671 159 0 51 1 0 0 32 7 3 0.732
1672 159 0 52 0 1 2 31 7 0 0.746
1673 159 0 53 0 0 3 31 7 0 0.647
1674 159 0 54 2 1 3 33 7 1 0.78
1675 159 0 55 1 0 0 34 7 1 0.708
1676 159 0 56 2 1 0 31 7 2 0.655
1677 159 0 57 0 0 1 36 7 0 0.591
1678 159 0 58 3 0 3 39 7 3 0.938
1679 159 0 59 2 1 1 31 7 1 0.709
1680 159 0 60 1 1 0 33 7 2 0.667
1681 159 0 61 0 1 1 33 7 3 0.564
1682 159 0 62 1 0 2 31 7 1 0.731
1683 159 0 63 3 1 0 31 7 1 0.59
1684 159 1 64 2 1 2 31 7 2 1.006
1685 159 1 65 0 0 1 35 7 1 0.738
1686 159 1 66 3 0 3 33 7 3 0.851
1687 159 1 67 1 0 3 36 7 1 0.748
1688 159 1 68 0 0 2 34 7 0 0.593
1689 159 1 69 3 0 1 32 7 3 0.7
1690 159 1 70 2 0 2 34 7 2 0.707
1691 159 1 71 3 1 1 31 7 2 1.118
1692 159 1 72 0 1 3 31 7 3 1.07
1693 159 1 73 2 1 1 31 7 3 0.855
1694 159 1 74 0 1 1 34 7 0 0.896
1695 159 1 75 2 0 3 33 7 3 1.264
1696 159 1 76 2 0 2 31 7 2 0.735
1697 159 1 77 2 0 1 32 7 0 0.892
1698 159 1 78 2 1 1 33 7 1 0.756
1699 159 1 79 3 0 1 34 7 3 0.869
1700 159 1 80 3 0 0 31 7 3 0.693
1701 159 1 81 1 0 2 36 7 2 0.892
1702 159 1 82 2 1 0 32 7 2 1.421
1703 159 1 83 1 0 3 31 7 2 0.769
1704 159 1 84 0 0 2 33 7 0 0.697
1705 159 1 85 2 0 0 33 7 3 0.984
1706 159 1 86 2 0 2 32 7 2 0.537
1707 159 1 87 0 0 1 32 7 2 0.686
1708 159 1 88 3 1 1 33 7 2 0.749
1709 159 1 89 2 0 1 33 7 2 0.83
1710 159 1 90 3 0 2 34 7 3 0.68
1711 159 1 91 1 0 2 31 7 1 0.688
1712 159 1 92 1 1 3 32 7 2 1.004
1713 159 1 93 0 1 2 31 7 3 1.159
1714 159 1 94 2 0 2 35 7 2 0.882
1715 159 1 95 3 1 1 37 7 3 1.111
1716 159 1 96 2 1 1 31 7 2 0.707
1717 159 1 97 0 0 0 31 7 3 0.682
1718 159 1 98 3 0 2 32 7 3 0.669
1719 159 1 99 0 1 0 34 7 3 0.706
1720 159 1 100 3 0 2 32 7 3 1.092
1721 159 1 101 2 1 1 31 7 1 0.976
1722 159 1 102 3 1 2 32 7 3 1.014
1723 159 1 103 2 1 3 31 7 2 1.406
1724 159 1 104 2 0 3 31 7 1 0.891
1725 159 1 105 1 0 3 32 7 1 0.807
1726 159 1 106 2 0 2 33 7 2 0.914
1727 159 1 107 1 0 2 31 7 2 0.562
1728 159 1 108 1 0 0 31 7 3 0.873
1729 159 1 109 3 1 0 31 7 1 0.978
1730 159 1 110 3 1 2 33 7 3 0.919
1731 159 1 111 1 1 0 32 7 3 0.81
1732 159 1 112 0 0 3 31 7 1 0.977
1733 159 1 113 3 0 1 32 7 3 1.057
1734 159 1 114 3 1 1 31 7 3 0.84
1735 159 1 115 2 1 3 31 7 0 1.182
1736 159 1 116 3 0 0 35 7 3 0.839
1737 159 1 117 0 0 1 36 7 0 0.761
1738 159 1 118 1 1 2 31 7 1 0.682
1739 159 1 119 0 0 3 33 7 0 0.642
1740 159 1 120 3 0 2 31 7 3 0.763
1741 159 1 121 3 1 3 31 7 1 0.796
1742 159 1 122 1 1 0 31 7 3 1.08
1743 159 1 123 1 0 0 31 7 3 1.141
1744 159 1 124 0 0 0 35 7 0 0.847
1745 159 1 125 3 0 0 31 7 3 0.809
1746 159 1 126 2 0 0 32 7 2 0.676
1747 159 1 127 2 0 1 32 7 2 0.619
1748 159 2 128 0 1 3 33 7 3 1.343
1749 159 2 129 1 1 1 35 7 2 0.855
1750 159 2 130 1 1 1 43 7 1 0.712
1751 159 2 131 1 1 2 31 7 0 0.7
1752 159 2 132 3 0 0 33 7 3 0.886
1753 159 2 133 2 0 3 42 7 2 0.862
1754 159 2 134 2 0 3 42 7 2 0.688
1755 159 2 135 1 0 2 35 7 1 0.607
1756 159 2 136 1 1 1 32 7 2 0.941
1757 159 2 137 1 0 1 33 7 1 0.607
1758 159 2 138 0 1 1 34 7 0 0.678
1759 159 2 139 1 0 2 31 7 1 0.645
1760 159 2 140 2 0 1 31 7 2 0.726
1761 159 2 141 1 0 0 33 7 1 0.612
1762 159 2 142 1 1 0 36 7 1 0.787
1763 159 2 143 0 1 1 31 7 0 0.715
1764 159 2 144 1 1 1 36 7 0 0.598
1765 159 2 145 3 1 0 31 7 3 0.945
1766 159 2 146 1 1 1 32 7 1 0.819
1767 159 2 147 0 1 2 31 7 1 0.53
1768 159 2 148 2 0 0 32 7 3 0.987
1769 159 2 149 2 1 0 33 7 1 0.823
1770 159 2 150 3 0 1 34 7 3 0.685
1771 159 2 151 2 1 1 31 7 2 0.737
1772 159 2 152 0 1 1 35 7 1 0.651
1773 159 2 153 1 1 1 34 7 1 0.515
1774 159 2 154 0 1 1 32 7 0 0.517
1775 159 2 155 2 1 3 31 7 0 0.639
1776 159 2 156 0 1 2 37 7 0 0.504
1777 159 2 157 2 0 3 31 7 1 0.614
1778 159 2 158 1 1 2 34 7 1 0.512
1779 159 2 159 0 1 3 34 7 0 0.482
1780 159 2 160 0 1 2 34 7 0 0.437
1781 159 2 161 2 1 0 31 7 1 0.586
1782 159 2 162 0 0 3 31 7 0 0.784
1783 159 2 163 3 1 2 33 7 1 0.6
1784 159 2 164 0 1 1 35 7 3 0.859
1785 159 2 165 0 0 0 33 7 3 0.664
1786 159 2 166 0 0 1 31 7 0 0.492
1787 159 2 167 0 0 0 32 7 0 0.418
1788 159 2 168 1 0 2 34 7 1 0.467
1789 159 2 169 1 1 0 31 7 3 1.263
1790 159 2 170 1 1 1 34 7 1 0.61
1791 159 2 171 0 1 0 33 7 0 0.6
1792 159 2 172 3 0 3 32 7 3 1.171
1793 159 2 173 1 0 1 32 7 0 0.609
1794 159 2 174 3 0 3 37 7 3 0.774
1795 159 2 175 1 1 2 31 7 1 0.647
1796 159 2 176 0 1 0 31 7 0 0.541
1797 159 2 177 3 1 3 32 7 3 0.845
1798 159 2 178 2 1 2 33 7 1 0.612
1799 159 2 179 2 1 2 35 7 1 0.566
1800 159 2 180 0 0 0 32 7 3 0.853
1801 159 2 181 3 0 0 35 7 3 0.585
1802 159 2 182 2 1 2 31 7 2 0.904
1803 159 2 183 2 1 1 45 7 2 1.036
1804 159 2 184 2 0 3 34 7 3 1.102
1805 159 2 185 0 0 1 32 7 0 1.05
1806 159 2 186 0 1 3 32 7 1 0.713
1807 159 2 187 0 1 2 33 7 1 0.647
1808 159 2 188 0 1 0 31 7 2 0.864
1809 159 2 189 3 0 2 32 7 3 1.077
1810 159 2 190 3 0 3 36 7 3 0.527
1811 159 2 191 1 0 1 32 7 0 0.476
1812 159 3 192 0 1 2 33 7 1 0.873
1813 159 3 193 0 1 3 33 7 1 0.594
1814 159 3 194 1 0 1 33 7 0 0.545
1815 159 3 195 0 0 3 31 7 0 0.769
1816 159 3 196 0 1 0 31 7 0 0.497
1817 159 3 197 0 0 2 33 7 1 0.6
1818 159 3 198 1 0 3 33 7 1 0.47
1819 159 3 199 3 1 3 31 7 1 0.777
1820 159 3 200 2 0 1 34 7 2 0.777
1821 159 3 201 2 1 3 38 7 2 0.73
1822 159 3 202 3 0 0 31 7 3 0.76
1823 159 3 203 3 1 2 33 7 3 0.433
1824 159 3 204 1 1 2 31 7 1 0.773
1825 159 3 205 1 1 0 31 7 3 0.726
1826 159 3 206 1 1 2 33 7 1 0.756
1827 159 3 207 2 1 2 34 7 1 0.573
1828 159 3 208 0 1 2 32 7 0 0.472
1829 159 3 209 3 1 2 31 7 3 0.804
1830 159 3 210 2 0 1 31 7 2 1.087
1831 159 3 211 2 1 3 31 7 1 0.676
1832 159 3 212 1 1 0 32 7 0 0.836
1833 159 3 213 1 1 2 35 7 1 0.582
1834 159 3 214 0 1 3 31 7 0 0.526
1835 159 3 215 3 1 1 32 7 3 0.791
1836 159 3 216 3 0 1 31 7 3 0.475
1837 159 3 217 3 1 3 31 7 3 0.494
1838 159 3 218 3 0 3 32 7 3 0.5
1839 159 3 219 3 1 3 31 7 3 0.503
1840 159 3 220 2 0 1 31 7 2 0.725
1841 159 3 221 0 1 3 35 7 0 0.767
1842 159 3 222 1 1 0 33 7 1 0.728
1843 159 3 223 0 0 3 31 7 0 0.51
1844 159 3 224 3 1 2 31 7 3 0.84
1845 159 3 225 0 1 3 34 7 0 0.622
1846 159 3 226 1 0 0 33 7 2 0.896
1847 159 3 227 3 0 3 31 7 3 0.547
1848 159 3 228 2 0 1 36 7 0 0.456
1849 159 3 229 2 0 0 32 7 2 0.603
1850 159 3 230 3 1 0 31 7 3 0.808
1851 159 3 231 3 1 2 32 7 2 1.415
1852 159 3 232 0 0 0 32 7 0 0.816
1853 159 3 233 3 0 0 32 7 3 0.77
1854 159 3 234 0 1 2 31 7 0 0.778
1855 159 3 235 1 0 0 38 7 1 0.591
1856 159 3 236 1 0 2 32 7 1 0.609
1857 159 3 237 1 0 3 36 7 1 0.451
1858 159 3 238 3 0 1 31 7 3 0.803
1859 159 3 239 0 0 2 31 7 0 0.502
1860 159 3 240 2 0 0 33 7 1 0.548
1861 159 3 241 3 0 1 35 7 3 0.604
1862 159 3 242 2 1 0 39 7 3 0.65
1863 159 3 243 1 1 3 35 7 0 0.739
1864 159 3 244 1 0 0 31 7 1 0.42
1865 159 3 245 1 0 3 32 7 1 0.436
1866 159 3 246 3 1 0 31 7 1 0.785
1867 159 3 247 2 0 2 31 7 0 0.76
1868 159 3 248 3 0 2 34 7 3 0.672
1869 159 3 249 1 0 2 31 7 1 0.512
1870 159 3 250 3 1 1 31 7 3 0.986
1871 159 3 251 0 0 0 31 7 0 0.575
1872 159 3 252 3 1 2 31 7 0 0.639
1873 159 3 253 3 1 2 33 7 3 0.816
1874 159 3 254 2 1 3 33 7 2 0.647
1875 159 3 255 3 1 3 31 7 3 0.628
1876 159 4 256 3 0 1 34 7 3 1.009
1877 159 4 257 2 1 0 31 7 1 0.601
1878 159 4 258 2 1 0 31 7 1 0.66
1879 159 4 259 0 0 0 32 7 0 0.584
1880 159 4 260 1 1 2 35 7 1 0.592
1881 159 4 261 0 0 1 35 7 0 0.794
1882 159 4 262 3 0 1 31 7 3 0.878
1883 159 4 263 2 0 3 31 7 1 0.614
1884 159 4 264 1 0 1 31 7 3 0.644
1885 159 4 265 3 1 1 31 7 2 0.821
1886 159 4 266 3 1 1 32 7 3 0.703
1887 159 4 267 2 0 2 31 7 1 0.99
1888 159 4 268 1 0 1 31 7 2 0.67
1889 159 4 269 0 1 2 33 7 0 0.685
1890 159 4 270 3 0 2 31 7 3 0.869
1891 159 4 271 2 1 2 33 7 1 0.554
1892 159 4 272 1 0 3 31 7 1 0.522
1893 159 4 273 2 1 3 32 7 1 0.515
1894 159 4 274 1 1 3 35 7 0 0.633
1895 159 4 275 0 0 1 33 7 0 0.638
1896 159 4 276 1 1 3 35 7 1 0.588
1897 159 4 277 2 0 0 31 7 1 0.486
1898 159 4 278 2 0 0 33 7 1 0.52
1899 159 4 279 3 0 3 35 7 3 0.753
1900 159 4 280 3 1 1 33 7 1 0.834
1901 159 4 281 1 0 1 32 7 0 0.559
1902 159 4 282 0 1 0 31 7 0 0.579
1903 159 4 283 0 0 2 32 7 3 1.007
1904 159 4 284 1 1 0 31 7 2 0.467
1905 159 4 285 0 0 3 31 7 0 0.414
1906 159 4 286 2 0 3 33 7 2 0.847
1907 159 4 287 0 1 3 33 7 0 0.469
1908 159 4 288 2 1 3 36 7 0 0.609
1909 159 4 289 2 1 1 32 7 2 0.763
1910 159 4 290 3 0 0 32 7 3 0.888
1911 159 4 291 3 1 3 31 7 3 0.58
1912 159 4 292 0 1 1 31 7 0 0.692
1913 159 4 293 3 1 0 32 7 3 0.671
1914 159 4 294 0 0 0 31 7 0 0.527
1915 159 4 295 0 1 0 41 7 0 0.497
1916 159 4 296 0 1 1 32 7 0 0.579
1917 159 4 297 0 0 2 31 7 0 0.647
1918 159 4 298 0 0 2 40 7 3 0.832
1919 159 4 299 2 1 3 31 7 2 0.786
1920 159 4 300 2 0 0 32 7 3 0.758
1921 159 4 301 0 0 3 31 7 0 0.422
1922 159 4 302 2 1 2 34 7 0 0.675
1923 159 4 303 1 1 3 32 7 1 0.571
1924 159 4 304 1 0 1 32 7 3 1.038
1925 159 4 305 0 0 0 33 7 0 0.645
1926 159 4 306 3 1 1 31 7 3 0.818
1927 159 4 307 2 0 2 37 7 2 0.636
1928 159 4 308 1 1 1 32 7 0 0.514
1929 159 4 309 2 1 1 31 7 2 0.68
1930 159 4 310 1 0 0 31 7 1 0.615
1931 159 4 311 3 0 1 34 7 3 0.825
1932 159 4 312 3 0 3 32 7 3 0.588
1933 159 4 313 2 0 2 31 7 2 0.799
1934 159 4 314 2 1 0 32 7 2 1.039
1935 159 4 315 1 0 3 36 7 1 0.569
1936 159 4 316 1 0 3 35 7 2 0.541
1937 159 4 317 1 1 3 32 7 2 1.449
1938 159 4 318 3 1 3 32 7 3 0.765
1939 159 4 319 0 0 1 34 7 0 0.618
