datID sessionID block trial target cue location forePeriod targetTime resp rt
1 168 0 0 3 1 0 31 7 1 2.689
2 168 0 1 1 0 0 33 7 1 0.842
3 168 0 2 3 0 0 33 7 3 0.891
4 168 0 3 3 1 1 32 7 1 0.542
5 170 0 0 2 0 2 32 7 2 0.725
6 170 0 1 3 1 2 31 7 3 0.688
7 170 0 2 0 0 2 33 7 0 0.6
8 170 0 3 2 0 0 31 7 2 0.652
9 170 0 4 0 0 2 35 7 0 0.453
10 170 0 5 0 1 3 32 7 3 0.714
11 170 0 6 2 1 0 33 7 2 1.986
12 170 0 7 1 1 1 31 7 1 1.056
13 170 0 8 0 1 1 31 7 1 0.631
14 172 0 0 1 0 3 34 8 1 0.594
15 172 0 1 2 1 3 32 8 2 0.873
16 172 0 2 0 1 3 32 8 1 0.661
17 172 0 3 2 1 2 31 8 2 0.948
18 172 0 4 1 1 3 31 8 1 0.806
19 172 0 5 0 1 2 33 8 1 0.95
20 172 0 6 3 1 0 34 8 2 2.188
21 172 0 7 3 0 3 33 8 3 1.977
22 175 0 0 2 1 2 33 8 1 0.572
23 175 0 1 0 1 0 31 8 2 0.687
24 175 0 2 3 0 2 32 8 3 0.77
25 175 0 3 2 0 0 31 8 2 0.607
26 175 0 4 2 1 0 32 8 2 0.877
27 178 0 0 2 1 2 32 8 0 1.594
28 178 0 1 1 0 1 31 8 1 1.197
29 178 0 2 1 1 2 31 8 0 0.999
30 178 0 3 3 0 3 31 8 3 2
31 178 0 4 3 0 3 33 8 3 1.155
32 178 0 5 1 1 2 33 8 2 1.103
33 178 0 6 1 1 3 31 8 0 1.009
34 178 0 7 1 0 1 31 8 1 0.713
35 178 0 8 1 1 0 31 8 0 1.397
36 178 0 9 3 0 2 32 8 3 0.88
37 178 0 10 3 1 1 31 8 3 1.222
38 178 0 11 2 0 2 35 8 2 0.707
39 178 0 12 0 0 3 37 8 0 0.644
40 178 0 13 2 0 0 38 8 2 0.822
41 178 0 14 0 1 3 34 8 3 1.005
42 178 0 15 1 1 3 34 8 0 0.801
43 178 0 16 1 1 3 31 8 3 1.357
44 178 0 17 0 1 2 32 8 1 0.822
45 178 0 18 0 0 1 31 8 0 0.566
46 178 0 19 3 1 0 31 8 0 1.047
47 178 0 20 3 1 1 33 8 3 0.779
48 178 0 21 3 0 2 32 8 3 0.937
49 178 0 22 0 1 0 32 8 2 0.781
50 178 0 23 2 1 2 32 8 0 0.697
51 178 0 24 0 1 2 34 8 0 0.857
52 178 0 25 3 0 0 33 8 3 0.996
53 178 0 26 1 0 2 32 8 1 1.129
54 178 0 27 0 0 1 32 8 0 0.666
55 178 0 28 3 0 0 31 8 3 0.636
56 178 0 29 0 0 1 34 8 0 0.686
57 178 0 30 2 1 3 33 8 2 0.715
58 178 0 31 0 1 0 34 8 0 0.55
59 178 0 32 3 1 3 31 8 3 0.582
60 178 0 33 3 1 1 33 8 3 0.791
61 178 0 34 0 1 0 32 8 0 0.592
62 178 0 35 2 0 2 32 8 2 0.645
63 178 0 36 3 1 2 33 8 3 0.58
64 178 0 37 0 1 3 32 8 0 0.597
65 178 0 38 1 1 2 31 8 2 0.677
66 178 0 39 3 1 2 32 8 3 0.645
67 178 0 40 3 1 2 36 8 3 0.658
68 178 0 41 3 1 0 36 8 3 0.607
69 178 0 42 2 0 2 33 8 2 0.691
70 178 0 43 3 0 3 31 8 3 0.66
71 178 0 44 3 0 3 31 8 3 0.678
72 178 0 45 3 0 2 31 8 3 0.599
73 178 0 46 1 0 2 32 8 2 0.715
74 178 0 47 0 1 0 32 8 0 0.554
75 178 0 48 0 1 1 40 8 0 0.508
76 178 0 49 0 0 1 31 8 0 0.612
77 178 0 50 1 0 3 33 8 1 0.712
78 178 0 51 2 0 0 31 8 0 0.569
79 178 0 52 3 1 0 31 8 0 0.878
80 178 0 53 1 0 3 31 8 1 1.164
81 178 0 54 0 0 3 33 8 0 0.556
82 178 0 55 2 1 3 35 8 0 0.685
83 178 0 56 2 0 3 31 8 2 0.833
84 178 0 57 3 0 2 31 8 3 0.717
85 178 0 58 3 1 1 34 8 0 0.872
86 178 0 59 0 1 1 31 8 0 0.593
87 178 0 60 0 0 2 33 8 2 0.693
88 178 0 61 0 0 0 31 8 0 0.713
89 178 0 62 1 0 2 31 8 1 0.617
90 178 0 63 2 0 2 31 8 2 0.619
91 178 1 64 1 0 3 32 8 1 0.541
92 178 1 65 2 0 1 32 8 2 0.611
93 178 1 66 0 1 1 33 8 0 0.53
94 178 1 67 1 0 2 31 8 1 0.712
95 178 1 68 1 0 0 31 8 1 0.568
96 178 1 69 0 0 0 40 8 0 0.652
97 178 1 70 1 1 1 34 8 0 0.633
98 178 1 71 3 0 0 33 8 3 0.721
99 178 1 72 0 1 3 35 8 0 0.748
100 178 1 73 1 1 2 32 8 2 0.647
101 178 1 74 0 0 2 31 8 1 0.765
102 178 1 75 2 0 0 31 8 0 0.717
103 178 1 76 1 0 2 32 8 1 0.881
104 178 1 77 0 0 2 33 8 0 0.556
105 178 1 78 3 1 0 31 8 0 0.637
106 178 1 79 3 0 3 33 8 3 0.868
107 178 1 80 2 1 1 31 8 2 1.067
108 178 1 81 3 1 1 42 8 3 0.871
109 178 1 82 0 1 3 36 8 0 0.62
110 178 1 83 2 1 3 32 8 2 0.779
111 178 1 84 3 0 3 32 8 3 0.856
112 178 1 85 3 0 1 38 8 0 1.251
113 178 1 86 2 0 3 34 8 2 0.596
114 178 1 87 2 1 2 32 8 2 0.676
115 178 1 88 2 1 3 31 8 2 0.561
116 178 1 89 0 0 3 35 8 0 0.711
117 178 1 90 3 0 1 31 8 3 0.839
118 178 1 91 2 0 3 34 8 2 0.512
119 178 1 92 2 0 2 31 8 2 0.615
120 178 1 93 0 1 0 31 8 0 0.629
121 178 1 94 0 1 1 32 8 0 0.563
122 178 1 95 2 1 2 36 8 2 0.563
123 178 1 96 1 0 3 32 8 1 0.714
124 178 1 97 2 1 0 31 8 0 0.582
125 178 1 98 3 0 1 36 8 3 0.767
126 178 1 99 3 1 0 33 8 3 0.713
127 178 1 100 3 1 2 33 8 3 0.548
128 178 1 101 1 1 2 34 8 2 0.581
129 178 1 102 2 1 0 31 8 0 0.568
130 178 1 103 0 0 3 36 8 0 0.609
131 178 1 104 0 0 3 31 8 0 0.66
132 178 1 105 3 1 2 37 8 3 0.594
133 178 1 106 0 0 0 31 8 0 0.533
134 178 1 107 0 1 2 31 8 0 0.616
135 178 1 108 3 1 3 33 8 3 0.6
136 178 1 109 2 1 0 31 8 0 0.487
137 178 1 110 0 1 0 34 8 0 0.542
138 178 1 111 0 1 1 31 8 0 0.559
139 178 1 112 3 0 1 31 8 3 0.676
140 178 1 113 1 0 0 32 8 1 0.646
141 178 1 114 0 0 0 32 8 0 0.462
142 178 1 115 0 1 2 32 8 2 0.675
143 178 1 116 0 0 2 31 8 0 0.537
144 178 1 117 2 1 1 32 8 0 0.571
145 178 1 118 3 1 2 33 8 3 0.591
146 178 1 119 0 1 3 39 8 3 0.702
147 178 1 120 0 1 0 33 8 0 0.541
148 178 1 121 3 0 3 37 8 3 0.707
149 178 1 122 2 0 1 35 8 2 0.611
150 178 1 123 1 1 0 31 8 0 0.514
151 178 1 124 1 0 0 31 8 1 0.604
152 178 1 125 0 0 2 32 8 0 0.639
153 178 1 126 1 0 0 32 8 1 0.658
154 178 1 127 0 1 2 32 8 2 0.624
155 178 2 128 3 1 2 31 8 2 0.757
156 178 2 129 2 1 2 34 8 2 0.562
157 178 2 130 3 0 3 31 8 3 0.615
158 178 2 131 3 1 0 31 8 0 0.597
159 178 2 132 2 1 0 33 8 0 0.552
160 178 2 133 2 1 1 34 8 0 0.525
161 178 2 134 3 0 0 34 8 3 0.696
162 178 2 135 1 1 2 32 8 2 0.565
163 178 2 136 2 1 1 38 8 0 0.57
164 178 2 137 3 1 1 31 8 0 0.686
165 178 2 138 3 0 3 32 8 3 0.931
166 178 2 139 3 0 1 33 8 3 0.523
167 178 2 140 2 0 3 31 8 2 0.482
168 178 2 141 1 1 1 31 8 0 0.469
169 178 2 142 0 1 1 34 8 0 0.572
170 178 2 143 3 0 1 31 8 3 0.578
171 178 2 144 2 0 1 33 8 2 0.583
172 178 2 145 1 1 1 31 8 0 0.504
173 178 2 146 3 1 0 32 8 3 0.623
174 178 2 147 3 0 0 31 8 3 0.658
175 178 2 148 2 1 0 31 8 2 0.511
176 178 2 149 1 1 0 32 8 1 0.577
177 178 2 150 2 1 3 32 8 2 0.625
178 178 2 151 0 1 2 31 8 0 0.591
179 178 2 152 1 0 2 33 8 2 0.595
180 178 2 153 1 1 2 34 8 1 0.519
181 178 2 154 1 0 1 31 8 2 0.767
182 178 2 155 2 1 2 31 8 2 0.669
183 178 2 156 0 1 0 32 8 0 0.587
184 178 2 157 0 0 0 37 8 0 0.511
185 178 2 158 1 1 0 32 8 0 0.513
186 178 2 159 2 0 3 32 8 2 0.588
187 178 2 160 2 1 1 35 8 2 0.971
188 178 2 161 2 0 3 32 8 1 0.626
189 178 2 162 2 0 0 32 8 2 0.585
190 178 2 163 2 1 0 35 8 0 0.65
191 178 2 164 0 1 1 35 8 0 0.476
192 178 2 165 0 1 0 31 8 0 0.56
193 178 2 166 0 1 1 31 8 0 0.61
194 178 2 167 1 0 0 33 8 1 0.772
195 178 2 168 1 1 1 38 8 1 0.605
196 178 2 169 3 0 1 31 8 3 0.721
197 178 2 170 2 1 2 34 8 2 0.555
198 178 2 171 1 1 1 33 8 0 0.524
199 178 2 172 3 0 0 31 8 3 0.695
200 178 2 173 2 0 2 40 8 2 0.551
201 178 2 174 1 1 2 31 8 1 0.473
202 178 2 175 0 0 0 31 8 0 0.61
203 178 2 176 3 1 3 31 8 3 0.593
204 178 2 177 3 1 2 35 8 3 0.433
205 178 2 178 1 0 1 31 8 2 0.827
206 178 2 179 1 0 3 31 8 1 0.507
207 178 2 180 0 0 2 32 8 1 0.643
208 178 2 181 2 0 3 33 8 2 0.762
209 178 2 182 3 0 2 31 8 3 0.761
210 178 2 183 0 1 0 31 8 0 0.547
211 178 2 184 2 1 3 32 8 2 0.501
212 178 2 185 3 0 2 31 8 3 0.669
213 178 2 186 2 1 3 35 8 2 0.618
214 178 2 187 0 0 1 32 8 0 0.573
215 178 2 188 2 1 1 32 8 0 0.477
216 178 2 189 3 1 3 31 8 3 0.548
217 178 2 190 2 1 1 32 8 0 0.422
218 178 2 191 1 1 3 32 8 1 0.672
219 178 3 192 0 1 3 36 8 0 0.49
220 178 3 193 0 0 1 33 8 0 0.497
221 178 3 194 0 1 2 34 8 0 0.548
222 178 3 195 0 0 1 33 8 0 0.464
223 178 3 196 0 0 0 39 8 0 0.554
224 178 3 197 0 1 1 31 8 0 0.54
225 178 3 198 0 1 3 31 8 0 0.51
226 178 3 199 3 1 0 46 8 3 0.625
227 178 3 200 1 0 1 33 8 2 0.772
228 178 3 201 3 0 2 32 8 3 0.614
229 178 3 202 2 1 0 31 8 2 0.645
230 178 3 203 3 0 0 39 8 3 0.711
231 178 3 204 3 1 1 31 8 3 0.626
232 178 3 205 2 0 1 38 8 2 0.485
233 178 3 206 3 0 0 31 8 3 0.542
234 178 3 207 1 0 1 32 8 2 0.597
235 178 3 208 2 1 0 32 8 2 0.663
236 178 3 209 2 1 0 31 8 2 0.565
237 178 3 210 2 0 0 37 8 2 0.588
238 178 3 211 3 0 1 34 8 3 0.688
239 178 3 212 1 1 1 31 8 3 1.213
240 178 3 213 3 0 2 31 8 3 0.622
241 178 3 214 0 0 0 31 8 0 0.738
242 178 3 215 3 0 0 32 8 3 0.657
243 178 3 216 1 1 1 31 8 0 1.103
244 178 3 217 0 1 3 33 8 3 0.769
245 178 3 218 1 0 0 33 8 1 0.675
246 178 3 219 1 0 3 38 8 1 0.693
247 178 3 220 2 1 3 31 8 2 0.85
248 178 3 221 0 0 0 31 8 0 0.605
249 178 3 222 0 0 1 31 8 0 0.673
250 178 3 223 1 1 3 32 8 1 0.653
251 178 3 224 0 0 2 34 8 1 0.672
252 178 3 225 3 1 0 31 8 3 0.784
253 178 3 226 0 0 3 36 8 2 0.781
254 178 3 227 3 1 1 34 8 3 0.602
255 178 3 228 3 1 3 35 8 3 0.586
256 178 3 229 3 1 3 31 8 3 0.602
257 178 3 230 2 1 3 38 8 2 0.538
258 178 3 231 1 1 1 31 8 1 0.7
259 178 3 232 0 0 0 31 8 0 0.588
260 178 3 233 3 1 3 35 8 3 0.556
261 178 3 234 0 0 2 33 8 2 0.61
262 178 3 235 3 1 2 35 8 3 0.757
263 178 3 236 3 0 0 34 8 3 0.501
264 178 3 237 2 1 2 31 8 2 0.457
265 178 3 238 1 1 0 31 8 0 0.428
266 178 3 239 3 1 1 31 8 2 0.533
267 178 3 240 0 0 1 31 8 1 0.686
268 178 3 241 2 0 0 33 8 0 0.643
269 178 3 242 1 0 2 35 8 1 0.953
270 178 3 243 2 1 1 33 8 0 0.599
271 178 3 244 3 1 3 32 8 3 0.587
272 178 3 245 1 0 3 31 8 2 0.592
273 178 3 246 0 0 3 33 8 2 0.521
274 178 3 247 2 0 0 33 8 2 0.516
275 178 3 248 1 1 1 32 8 1 0.583
276 178 3 249 3 0 3 31 8 3 0.572
277 178 3 250 2 0 0 34 8 2 0.465
278 178 3 251 2 0 3 34 8 2 0.426
279 178 3 252 0 1 2 38 8 0 0.495
280 178 3 253 0 1 2 31 8 0 0.53
281 178 3 254 1 0 0 31 8 0 0.52
282 178 3 255 0 1 3 32 8 0 0.478
283 178 4 256 1 1 0 33 8 0 0.479
284 178 4 257 1 1 2 31 8 1 0.567
285 178 4 258 2 0 1 41 8 2 0.54
286 178 4 259 2 0 2 35 8 2 0.563
287 178 4 260 0 0 2 31 8 0 0.585
288 178 4 261 2 0 3 33 8 2 0.686
289 178 4 262 1 0 0 33 8 1 0.56
290 178 4 263 3 1 0 31 8 3 0.866
291 178 4 264 1 1 0 40 8 0 0.6
292 178 4 265 1 0 1 35 8 2 0.609
293 178 4 266 1 0 0 31 8 1 0.601
294 178 4 267 2 1 1 32 8 0 0.697
295 178 4 268 2 0 1 31 8 2 0.558
296 178 4 269 1 0 2 31 8 2 0.612
297 178 4 270 1 0 1 35 8 2 0.652
298 178 4 271 1 1 0 33 8 0 0.589
299 178 4 272 1 1 3 34 8 2 0.593
300 178 4 273 3 1 3 35 8 3 0.532
301 178 4 274 0 0 2 32 8 2 0.523
302 178 4 275 2 1 2 32 8 2 0.561
303 178 4 276 3 0 1 33 8 3 0.663
304 178 4 277 1 0 0 31 8 1 0.746
305 178 4 278 0 1 1 31 8 0 0.485
306 178 4 279 2 0 0 31 8 2 0.653
307 178 4 280 1 0 3 40 8 1 0.592
308 178 4 281 2 0 1 31 8 2 0.533
309 178 4 282 2 0 1 34 8 0 0.555
310 178 4 283 1 0 2 32 8 1 0.628
311 178 4 284 1 0 1 31 8 1 0.679
312 178 4 285 2 1 3 35 8 2 0.563
313 178 4 286 1 1 3 32 8 1 0.532
314 178 4 287 1 1 3 31 8 1 0.518
315 178 4 288 1 1 1 31 8 0 0.537
316 178 4 289 3 1 1 32 8 3 0.495
317 178 4 290 3 1 3 33 8 3 0.579
318 178 4 291 0 0 3 32 8 0 0.631
319 178 4 292 2 0 3 33 8 2 0.57
320 178 4 293 3 0 2 31 8 3 0.724
321 178 4 294 3 1 2 33 8 3 0.719
322 178 4 295 3 0 1 35 8 3 0.735
323 178 4 296 2 1 0 33 8 0 0.569
324 178 4 297 2 1 1 32 8 0 0.542
325 178 4 298 1 1 0 39 8 1 0.593
326 178 4 299 2 0 2 31 8 2 0.582
327 178 4 300 2 0 1 31 8 2 0.683
328 178 4 301 1 1 2 31 8 1 0.471
329 178 4 302 0 0 3 36 8 0 0.591
330 178 4 303 0 1 2 37 8 2 0.527
331 178 4 304 2 0 1 32 8 0 0.665
332 178 4 305 1 0 1 32 8 1 0.527
333 178 4 306 0 0 3 34 8 0 0.582
334 178 4 307 2 0 0 36 8 0 0.43
335 178 4 308 1 0 2 32 8 2 0.508
336 178 4 309 2 0 2 33 8 2 0.456
337 178 4 310 1 1 3 31 8 1 0.653
338 178 4 311 2 0 2 31 8 2 0.511
339 178 4 312 1 0 3 31 8 1 0.486
340 178 4 313 3 0 2 32 8 3 0.574
341 178 4 314 1 1 0 33 8 0 0.51
342 178 4 315 0 0 1 31 8 0 0.504
343 178 4 316 0 1 3 32 8 0 0.475
344 178 4 317 2 1 2 31 8 2 0.847
345 178 4 318 1 0 3 32 8 1 0.489
346 178 4 319 1 1 3 31 8 1 0.43
347 179 0 0 2 0 3 32 8 2 0.562
348 179 0 1 1 0 2 34 8 2 0.766
349 179 0 2 3 0 1 32 8 3 0.6
350 179 0 3 1 1 1 33 8 2 1.111
351 179 0 4 3 0 0 31 8 3 0.58
352 179 0 5 2 1 2 31 8 1 1.18
353 179 0 6 0 0 0 35 8 0 0.43
354 179 0 7 1 1 0 34 8 2 0.346
355 179 0 8 3 0 2 31 8 0 0.171
356 179 0 9 2 1 3 31 8 0 0.14
357 179 0 10 0 1 0 31 8 0 0.343
358 179 0 11 0 1 2 32 8 0 0.079
359 179 0 12 2 1 0 34 8 0 0.329
360 179 0 13 2 1 2 32 8 0 0.045
361 179 0 14 0 1 1 32 8 0 0.114
362 179 0 15 2 1 1 35 8 0 0.168
363 179 0 16 2 0 2 31 8 0 0.119
364 179 0 17 3 1 0 31 8 0 0.066
365 179 0 18 1 0 3 33 8 0 0.108
366 179 0 19 0 1 2 31 8 0 0.144
367 179 0 20 1 1 3 31 8 0 0.055
368 179 0 21 0 1 2 32 8 0 0.109
369 179 0 22 1 1 0 32 8 0 0.109
370 179 0 23 1 1 2 37 8 0 0.217
371 179 0 24 2 1 1 33 8 0 0.168
372 179 0 25 1 0 2 32 8 0 0.047
373 179 0 26 3 0 3 31 8 -1 0.45
374 179 0 27 2 1 3 31 8 -1 0.201
375 180 0 0 0 1 0 35 8 3 0.599
376 180 0 1 1 1 0 31 8 1 0.603
377 180 0 2 2 0 2 32 8 2 0.703
378 180 0 3 0 0 3 31 8 0 0.784
379 180 0 4 2 1 1 34 8 2 0.745
380 186 0 0 3 1 0 32 8 3 1.396
381 186 0 1 0 0 2 32 8 0 1.165
382 186 0 2 3 1 2 31 8 3 0.809
383 186 0 3 0 0 0 31 8 0 0.758
384 186 0 4 2 1 1 41 8 2 1.204
385 186 0 5 2 1 2 33 8 -1 0.846
386 186 0 6 3 0 3 31 8 3 1.741
387 186 0 7 3 0 1 31 8 3 0.745
388 186 0 8 0 1 1 34 8 0 0.964
389 186 0 9 1 1 2 34 8 0 1.048
390 186 0 10 2 0 0 39 8 2 1.136
391 186 0 11 0 1 0 32 8 0 0.685
392 186 0 12 1 1 0 31 8 0 1.13
393 186 0 13 3 1 1 33 8 3 0.715
394 186 0 14 0 0 1 31 8 0 0.588
395 186 0 15 1 0 3 36 8 1 0.849
396 186 0 16 1 1 1 32 8 0 0.696
397 186 0 17 1 0 1 35 8 1 0.717
398 186 0 18 1 1 1 37 8 1 0.745
399 186 0 19 3 0 3 31 8 3 0.841
400 186 0 20 2 1 0 32 8 1 0.704
401 186 0 21 3 0 2 34 8 1 8.692
402 186 0 22 2 1 0 31 8 0 0.694
403 186 0 23 1 1 1 31 8 1 0.678
404 186 0 24 3 1 2 31 8 3 0.836
405 186 0 25 3 0 3 35 8 3 0.768
406 186 0 26 1 0 0 33 8 1 0.943
407 186 0 27 3 0 3 39 8 3 0.695
408 186 0 28 1 1 2 31 8 1 0.804
409 186 0 29 2 0 2 31 8 2 0.817
410 186 0 30 2 1 0 34 8 1 0.75
411 186 0 31 3 0 3 33 8 3 0.785
412 186 0 32 3 0 0 31 8 3 0.639
413 186 0 33 0 0 2 31 8 0 0.594
414 186 0 34 2 0 3 33 8 1 0.871
415 186 0 35 3 0 0 31 8 3 0.677
416 186 0 36 1 1 3 31 8 0 0.755
417 186 0 37 1 0 1 31 8 1 0.838
418 186 0 38 2 0 0 35 8 2 0.801
419 186 0 39 2 1 0 33 8 0 0.698
420 186 0 40 0 1 1 36 8 0 0.634
421 186 0 41 3 0 2 31 8 3 1.389
422 186 0 42 2 0 0 31 8 2 0.822
423 186 0 43 3 0 1 33 8 3 0.723
424 186 0 44 2 1 3 32 8 0 0.622
425 186 0 45 1 0 0 33 8 1 0.789
426 186 0 46 3 1 2 31 8 3 1.439
427 186 0 47 1 0 2 36 8 1 0.661
428 186 0 48 2 1 0 31 8 0 0.643
429 186 0 49 0 1 0 33 8 0 0.438
430 186 0 50 0 1 2 38 8 0 0.699
431 186 0 51 0 1 0 33 8 0 0.456
432 186 0 52 2 1 0 37 8 0 0.509
433 186 0 53 1 0 0 32 8 1 0.681
434 186 0 54 2 1 1 31 8 2 1.094
435 186 0 55 0 0 3 34 8 0 1.018
436 186 0 56 2 1 3 33 8 2 1.018
437 186 0 57 1 0 3 33 8 1 1.36
438 186 0 58 2 0 3 36 8 1 0.762
439 186 0 59 2 0 1 36 8 2 1.053
440 186 0 60 3 1 1 32 8 3 0.572
441 186 0 61 3 1 1 36 8 3 0.637
442 186 0 62 0 0 1 38 8 0 0.545
443 186 0 63 2 1 2 40 8 2 1.187
444 186 1 64 2 0 0 36 8 2 0.721
445 186 1 65 1 1 2 37 8 2 1.116
446 186 1 66 3 1 0 34 8 0 0.573
447 186 1 67 2 0 1 31 8 2 0.63
448 186 1 68 3 1 0 34 8 0 0.534
449 186 1 69 3 1 1 31 8 3 0.604
450 186 1 70 0 1 3 31 8 0 0.588
451 186 1 71 1 1 2 31 8 0 0.652
452 186 1 72 0 1 0 34 8 0 0.654
453 186 1 73 1 1 0 32 8 1 0.62
454 186 1 74 3 0 1 31 8 3 0.751
455 186 1 75 3 0 2 31 8 3 0.623
456 186 1 76 1 1 0 32 8 0 0.67
457 186 1 77 2 1 0 31 8 2 0.703
458 186 1 78 3 1 2 33 8 3 0.795
459 186 1 79 1 0 3 33 8 2 1.305
460 186 1 80 3 1 1 34 8 3 0.595
461 186 1 81 3 0 2 41 8 3 0.616
462 186 1 82 1 0 1 32 8 1 0.588
463 186 1 83 0 0 1 31 8 0 0.433
464 186 1 84 3 1 3 31 8 3 0.76
465 186 1 85 0 1 2 32 8 3 0.738
466 186 1 86 2 1 2 31 8 2 0.593
467 186 1 87 3 1 3 37 8 0 0.817
468 186 1 88 3 0 0 31 8 3 0.723
469 186 1 89 3 1 3 36 8 3 0.751
470 186 1 90 0 0 1 34 8 0 0.559
471 186 1 91 0 0 2 31 8 0 0.501
472 186 1 92 0 1 3 33 8 3 1.097
473 186 1 93 1 1 3 33 8 1 1.355
474 186 1 94 1 1 1 35 8 1 0.56
475 186 1 95 0 1 3 31 8 0 0.658
476 186 1 96 0 0 3 31 8 0 0.58
477 186 1 97 3 0 1 35 8 3 0.714
478 186 1 98 1 0 2 31 8 1 0.571
479 186 1 99 2 0 2 31 8 2 0.673
480 186 1 100 2 0 2 32 8 2 0.483
481 186 1 101 2 1 1 32 8 2 0.631
482 186 1 102 0 0 3 33 8 0 0.539
483 186 1 103 1 0 0 31 8 1 0.578
484 186 1 104 2 0 3 31 8 2 0.744
485 186 1 105 1 0 0 33 8 1 0.6
486 186 1 106 1 1 2 34 8 1 0.933
487 186 1 107 2 1 2 34 8 0 0.713
488 186 1 108 1 0 1 31 8 1 0.845
489 186 1 109 1 0 2 31 8 1 0.49
490 186 1 110 2 0 3 31 8 2 0.738
491 186 1 111 2 0 2 38 8 2 0.498
492 186 1 112 3 0 1 31 8 3 0.651
493 186 1 113 3 1 0 33 8 1 0.873
494 186 1 114 2 1 2 32 8 2 0.755
495 186 1 115 1 1 0 31 8 0 0.718
496 186 1 116 2 1 0 33 8 2 0.845
497 186 1 117 1 1 0 33 8 1 1.094
498 186 1 118 1 0 1 34 8 1 0.569
499 186 1 119 1 1 1 32 8 0 0.586
500 186 1 120 2 1 3 31 8 2 1.246
501 186 1 121 0 0 1 31 8 0 0.62
502 186 1 122 2 1 2 31 8 0 0.795
503 186 1 123 1 1 3 33 8 1 0.872
504 186 1 124 3 0 0 32 8 3 1.411
505 186 1 125 1 0 1 33 8 1 0.859
506 186 1 126 2 0 0 31 8 2 0.967
507 186 1 127 2 0 1 31 8 2 0.638
508 186 2 128 0 1 3 32 8 0 0.674
509 186 2 129 2 1 3 32 8 0 0.544
510 186 2 130 0 1 0 31 8 1 0.661
511 186 2 131 2 1 1 38 8 0 0.534
512 186 2 132 0 1 3 32 8 1 0.909
513 186 2 133 0 1 3 32 8 0 0.725
514 186 2 134 0 1 2 34 8 3 1.041
515 186 2 135 3 1 3 31 8 3 0.789
516 186 2 136 2 1 2 31 8 2 1.438
517 186 2 137 3 0 0 32 8 3 0.661
518 186 2 138 2 0 3 32 8 2 0.856
519 186 2 139 3 0 0 32 8 3 0.627
520 186 2 140 3 1 0 31 8 3 0.706
521 186 2 141 0 0 1 34 8 0 0.563
522 186 2 142 0 1 1 34 8 0 1.301
523 186 2 143 0 1 2 32 8 3 1.66
524 186 2 144 1 0 2 33 8 3 1.004
525 186 2 145 0 0 0 37 8 0 0.55
526 186 2 146 1 0 3 31 8 1 1.085
527 186 2 147 2 0 3 34 8 2 0.688
528 186 2 148 0 1 2 34 8 0 0.861
529 186 2 149 2 0 2 32 8 2 0.904
530 186 2 150 0 0 0 32 8 0 0.594
531 186 2 151 3 1 0 31 8 3 0.722
532 186 2 152 3 1 2 43 8 3 0.846
533 186 2 153 1 0 2 31 8 1 0.714
534 186 2 154 1 0 3 33 8 1 0.651
535 186 2 155 0 1 1 32 8 0 0.617
536 186 2 156 1 1 1 36 8 1 0.68
537 186 2 157 3 1 3 33 8 3 1.43
538 186 2 158 1 1 0 31 8 1 0.744
539 186 2 159 3 0 3 32 8 3 0.776
540 186 2 160 0 0 2 31 8 0 0.598
541 186 2 161 0 0 0 44 8 0 0.475
542 186 2 162 0 1 1 31 8 0 0.528
543 186 2 163 1 0 0 33 8 1 0.631
544 186 2 164 0 0 1 35 8 0 0.315
545 186 2 165 1 1 2 31 8 3 1.046
546 186 2 166 2 0 2 37 8 1 1.326
547 186 2 167 1 0 2 31 8 1 0.637
548 186 2 168 1 0 1 33 8 1 0.512
549 186 2 169 1 1 2 32 8 1 0.948
550 186 2 170 3 1 1 33 8 3 1.191
551 186 2 171 0 0 2 33 8 1 0.823
552 186 2 172 2 1 3 36 8 0 0.739
553 186 2 173 1 0 3 32 8 1 0.71
554 186 2 174 3 0 1 33 8 3 0.599
555 186 2 175 0 0 0 32 8 0 0.38
556 186 2 176 0 1 3 35 8 3 1.092
557 186 2 177 0 0 0 31 8 0 0.651
558 186 2 178 0 1 0 31 8 0 0.585
559 186 2 179 2 1 1 47 8 0 0.682
560 186 2 180 0 0 2 36 8 3 0.975
561 186 2 181 1 0 2 32 8 2 1.306
562 186 2 182 3 1 1 33 8 3 0.789
563 186 2 183 3 0 2 31 8 3 0.611
564 186 2 184 1 0 0 36 8 1 0.631
565 186 2 185 0 0 0 32 8 0 0.475
566 186 2 186 1 1 1 37 8 1 0.672
567 186 2 187 0 0 2 31 8 0 0.578
568 186 2 188 3 0 3 31 8 3 0.76
569 186 2 189 3 0 2 31 8 3 0.663
570 186 2 190 1 0 1 36 8 1 0.537
571 186 2 191 3 0 3 31 8 3 0.64
572 186 3 192 3 0 2 33 8 3 0.973
573 186 3 193 3 0 0 32 8 3 0.436
574 186 3 194 0 1 1 31 8 0 0.554
575 186 3 195 3 1 3 32 8 1 0.86
576 186 3 196 2 1 3 31 8 1 1.158
577 186 3 197 2 1 1 32 8 0 0.678
578 186 3 198 3 0 3 32 8 3 1.132
579 186 3 199 0 1 2 37 8 0 1.288
580 186 3 200 2 0 3 39 8 2 1.397
581 186 3 201 3 0 3 36 8 3 0.813
582 186 3 202 2 0 0 34 8 2 0.747
583 186 3 203 3 1 0 32 8 0 0.63
584 186 3 204 0 0 1 32 8 0 0.413
585 186 3 205 3 1 0 32 8 2 0.676
586 186 3 206 3 0 0 32 8 3 0.602
587 186 3 207 2 1 0 35 8 0 0.601
588 186 3 208 1 0 3 31 8 1 1.314
589 186 3 209 2 0 0 31 8 2 0.846
590 186 3 210 0 0 3 34 8 0 0.49
591 186 3 211 0 0 3 31 8 0 0.451
592 186 3 212 3 1 2 33 8 3 0.744
593 186 3 213 0 0 0 43 8 0 0.487
594 186 3 214 3 1 0 32 8 0 0.523
595 186 3 215 1 1 2 31 8 2 0.738
596 186 3 216 0 0 3 34 8 2 0.965
597 186 3 217 2 0 0 34 8 2 0.849
598 186 3 218 3 0 0 39 8 3 0.589
599 186 3 219 0 0 3 31 8 0 0.498
600 186 3 220 1 1 2 34 8 2 0.918
601 186 3 221 2 0 1 32 8 2 0.835
602 186 3 222 3 1 3 31 8 3 0.731
603 186 3 223 2 1 3 37 8 2 0.934
604 186 3 224 3 0 1 33 8 3 0.639
605 186 3 225 0 1 1 31 8 1 0.798
606 186 3 226 1 0 3 32 8 1 0.719
607 186 3 227 0 1 2 32 8 0 0.651
608 186 3 228 2 1 3 32 8 1 0.921
609 186 3 229 0 1 1 32 8 1 0.881
610 186 3 230 2 0 1 31 8 2 0.831
611 186 3 231 0 1 0 34 8 0 0.567
612 186 3 232 2 1 2 31 8 0 0.76
613 186 3 233 1 1 2 31 8 1 0.646
614 186 3 234 0 0 3 31 8 0 0.746
615 186 3 235 0 0 1 33 8 0 0.441
616 186 3 236 0 1 2 31 8 0 0.591
617 186 3 237 1 0 3 32 8 1 1.14
618 186 3 238 3 0 1 33 8 3 0.742
619 186 3 239 2 1 3 34 8 2 0.769
620 186 3 240 2 1 1 32 8 0 0.747
621 186 3 241 1 1 3 31 8 1 0.489
622 186 3 242 1 1 0 32 8 1 0.733
623 186 3 243 1 0 2 33 8 1 0.925
624 186 3 244 1 0 2 31 8 1 0.423
625 186 3 245 2 1 0 34 8 1 0.573
626 186 3 246 2 0 1 33 8 2 0.71
627 186 3 247 2 0 0 32 8 2 0.455
628 186 3 248 0 1 3 32 8 2 1.341
629 186 3 249 1 1 1 31 8 2 0.678
630 186 3 250 3 0 2 31 8 3 0.699
631 186 3 251 0 0 3 33 8 3 0.509
632 186 3 252 0 0 0 37 8 0 0.473
633 186 3 253 0 1 0 31 8 0 0.557
634 186 3 254 0 0 0 36 8 0 0.451
635 186 3 255 1 1 3 31 8 2 0.889
636 186 4 256 3 1 2 33 8 3 0.72
637 186 4 257 0 1 2 31 8 0 0.716
638 186 4 258 2 1 2 32 8 0 0.583
639 187 0 0 1 0 0 35 8 1 0.858
640 186 4 259 1 1 3 31 8 -1 0.828
641 187 0 1 0 0 3 33 8 0 1.358
642 187 0 2 1 1 2 35 8 1 1.098
643 186 4 260 0 1 3 35 8 3 1.895
644 186 4 261 0 1 2 32 8 0 0.556
645 187 0 3 0 1 2 32 8 0 0.88
646 187 0 4 2 0 3 32 8 2 0.93
647 186 4 262 0 1 3 31 8 0 1.198
648 187 0 5 1 0 1 31 8 1 0.907
649 186 4 263 0 1 1 32 8 0 1.417
650 187 0 6 2 1 1 37 8 2 1.415
651 186 4 264 2 0 3 34 8 2 0.736
652 186 4 265 2 0 2 31 8 2 0.704
653 187 0 7 3 0 3 31 8 3 1.03
654 186 4 266 3 1 1 31 8 3 0.78
655 187 0 8 3 0 1 36 8 3 0.803
656 186 4 267 1 0 3 36 8 2 0.955
657 187 0 9 0 1 1 31 8 1 2.267
658 186 4 268 3 0 1 33 8 3 0.454
659 186 4 269 3 0 2 32 8 3 0.4
660 187 0 10 3 1 3 31 8 3 0.89
661 186 4 270 1 1 1 32 8 0 0.536
662 187 0 11 2 1 0 31 8 1 1.023
663 186 4 271 3 0 0 31 8 3 0.594
664 187 0 12 0 0 0 32 8 0 0.808
665 186 4 272 3 1 3 34 8 3 0.818
666 187 0 13 1 0 3 31 8 1 1.005
667 186 4 273 2 1 1 31 8 2 0.65
668 187 0 14 1 0 0 31 8 1 0.842
669 186 4 274 2 0 1 31 8 2 1.437
670 187 0 15 3 0 0 31 8 3 0.806
671 186 4 275 3 1 3 35 8 3 0.656
672 187 0 16 1 1 0 33 8 1 1.086
673 186 4 276 0 0 2 31 8 1 1.362
674 187 0 17 1 0 3 32 8 0 0.905
675 186 4 277 2 0 2 33 8 2 0.64
676 186 4 278 2 0 3 31 8 2 0.803
677 187 0 18 1 1 0 32 8 2 2.449
678 186 4 279 2 0 1 35 8 2 0.48
679 187 0 19 0 1 2 31 8 1 0.969
680 186 4 280 2 0 2 34 8 2 0.522
681 187 0 20 0 1 3 33 8 2 0.943
682 186 4 281 2 0 3 37 8 2 0.513
683 187 0 21 0 1 0 31 8 1 1.046
684 186 4 282 1 1 0 33 8 2 0.788
685 187 0 22 1 1 3 32 8 0 1.025
686 186 4 283 3 1 2 31 8 3 0.497
687 186 4 284 3 0 1 38 8 3 0.522
688 187 0 23 1 0 2 32 8 1 0.81
689 186 4 285 1 0 1 35 8 1 0.497
690 187 0 24 0 0 1 32 8 0 0.815
691 186 4 286 2 1 2 32 8 1 0.533
692 187 0 25 0 0 2 33 8 0 0.819
693 186 4 287 3 1 1 31 8 3 0.716
694 187 0 26 3 1 2 31 8 1 1.203
695 186 4 288 3 1 1 32 8 3 0.568
696 187 0 27 3 0 0 32 8 3 1.109
697 186 4 289 1 0 0 37 8 1 0.589
698 187 0 28 0 0 3 32 8 0 0.727
699 186 4 290 1 0 1 33 8 1 0.451
700 186 4 291 3 0 2 31 8 3 0.493
701 187 0 29 3 1 0 33 8 1 1.466
702 186 4 292 0 1 0 32 8 1 0.673
703 187 0 30 3 1 2 39 8 3 0.878
704 186 4 293 1 1 3 31 8 0 0.61
705 187 0 31 2 0 2 33 8 2 1.144
706 186 4 294 0 1 0 38 8 0 0.613
707 186 4 295 0 0 2 31 8 3 0.746
708 187 0 32 2 0 1 33 8 2 1.129
709 186 4 296 2 0 1 34 8 2 0.461
710 187 0 33 2 0 2 32 8 2 0.915
711 186 4 297 1 1 3 32 8 0 0.658
712 187 0 34 0 0 2 36 8 0 0.828
713 186 4 298 2 0 0 31 8 1 0.601
714 187 0 35 2 0 3 31 8 2 0.952
715 186 4 299 2 1 3 32 8 0 0.605
716 187 0 36 0 1 1 31 8 0 1.147
717 186 4 300 1 1 1 33 8 0 0.56
718 186 4 301 0 0 2 33 8 0 0.426
719 187 0 37 1 1 0 34 8 1 0.783
720 186 4 302 1 0 0 35 8 1 0.676
721 187 0 38 0 1 3 33 8 1 1.336
722 186 4 303 2 0 2 31 8 2 1.174
723 187 0 39 1 1 3 34 8 2 1.161
724 186 4 304 2 0 1 31 8 2 1.191
725 187 0 40 3 0 3 32 8 3 1.005
726 186 4 305 0 0 3 32 8 0 0.487
727 187 0 41 0 1 0 33 8 1 0.886
728 186 4 306 0 1 1 33 8 0 0.506
729 187 0 42 0 0 3 33 8 0 0.835
730 186 4 307 3 1 0 34 8 0 0.686
731 187 0 43 1 1 3 34 8 2 0.994
732 186 4 308 3 1 3 31 8 3 0.91
733 187 0 44 1 0 0 31 8 1 1.14
734 186 4 309 0 0 1 31 8 0 0.44
735 186 4 310 2 1 1 31 8 0 0.462
736 187 0 45 1 0 3 34 8 1 0.813
737 186 4 311 1 1 0 37 8 1 0.774
738 187 0 46 3 0 0 34 8 3 0.761
739 186 4 312 3 1 2 32 8 3 1.056
740 187 0 47 3 1 1 31 8 3 1.011
741 186 4 313 3 1 2 33 8 3 0.48
742 187 0 48 2 1 3 31 8 1 1.06
743 186 4 314 1 0 2 33 8 1 0.569
744 187 0 49 2 0 2 31 8 2 0.868
745 186 4 315 1 1 3 31 8 2 1.53
746 187 0 50 0 0 3 31 8 0 0.935
747 186 4 316 1 1 3 31 8 3 0.444
748 187 0 51 2 0 0 33 8 2 0.751
749 186 4 317 2 1 1 34 8 0 0.501
750 187 0 52 1 0 2 32 8 1 0.749
751 186 4 318 1 1 0 33 8 1 0.509
752 187 0 53 0 1 0 37 8 2 1.456
753 186 4 319 1 0 0 31 8 1 0.629
754 187 0 54 3 1 3 35 8 0 1.372
755 187 0 55 0 0 1 33 8 0 0.688
756 187 0 56 3 1 1 32 8 3 0.989
757 187 0 57 0 0 1 32 8 0 0.867
758 187 0 58 2 0 2 31 8 2 1.021
759 187 0 59 3 1 0 31 8 2 1.286
760 187 0 60 3 1 0 31 8 3 1.04
761 187 0 61 1 1 0 34 8 2 0.904
762 187 0 62 2 0 3 31 8 2 0.956
763 187 0 63 2 1 3 32 8 1 0.951
764 187 1 64 2 0 3 32 8 2 3.149
765 187 1 65 0 0 3 39 8 0 0.662
766 187 1 66 0 0 0 32 8 0 0.648
767 187 1 67 3 1 2 37 8 3 0.902
768 187 1 68 1 1 1 37 8 1 0.85
769 187 1 69 3 1 3 38 8 3 0.865
770 187 1 70 1 0 3 34 8 2 0.852
771 187 1 71 2 0 2 36 8 2 0.754
772 187 1 72 3 0 2 32 8 3 0.753
773 187 1 73 1 1 0 31 8 1 0.939
774 187 1 74 2 1 3 31 8 2 0.958
775 187 1 75 3 1 0 33 8 1 1.049
776 187 1 76 3 1 1 34 8 1 1.115
777 187 1 77 0 1 2 31 8 1 1.012
778 187 1 78 3 1 0 33 8 2 1
779 187 1 79 2 1 0 31 8 1 0.917
780 187 1 80 2 1 0 34 8 2 1.148
781 187 1 81 1 1 1 31 8 1 0.752
782 187 1 82 2 1 0 31 8 1 1.061
783 187 1 83 0 0 0 32 8 0 0.724
784 187 1 84 0 1 0 32 8 2 1.063
785 187 1 85 0 0 3 33 8 1 1.455
786 187 1 86 3 0 3 35 8 3 1.184
787 187 1 87 1 1 1 37 8 1 0.866
788 187 1 88 2 0 0 33 8 2 0.965
789 187 1 89 0 1 2 32 8 2 0.88
790 187 1 90 0 0 1 31 8 1 0.982
791 187 1 91 2 1 1 35 8 1 0.875
792 187 1 92 1 0 0 31 8 1 2.401
793 187 1 93 3 1 1 34 8 3 1.336
794 187 1 94 0 0 0 33 8 0 0.77
795 187 1 95 3 1 1 32 8 3 0.811
796 187 1 96 1 0 2 31 8 2 0.88
797 187 1 97 2 1 2 32 8 1 0.93
798 187 1 98 0 0 2 34 8 0 0.821
799 187 1 99 0 0 2 31 8 0 0.785
800 187 1 100 2 0 3 42 8 2 0.847
801 187 1 101 0 1 2 33 8 1 1.102
802 187 1 102 2 1 2 31 8 1 1.119
803 187 1 103 2 1 1 41 8 2 0.895
804 187 1 104 1 1 1 32 8 2 0.747
805 187 1 105 2 0 0 34 8 2 0.894
806 187 1 106 1 1 1 34 8 1 0.963
807 187 1 107 0 1 1 32 8 1 1.07
808 187 1 108 2 0 3 34 8 3 1.021
809 187 1 109 1 1 1 32 8 1 0.848
810 187 1 110 3 0 2 32 8 3 0.852
811 187 1 111 1 1 3 31 8 3 2.378
812 187 1 112 0 1 0 34 8 0 0.83
813 187 1 113 1 0 2 31 8 2 1.178
814 187 1 114 1 0 1 31 8 1 0.917
815 187 1 115 1 1 2 31 8 1 1.137
816 187 1 116 2 0 2 31 8 2 0.93
817 187 1 117 2 1 3 31 8 2 0.99
818 187 1 118 3 0 1 32 8 3 0.812
819 187 1 119 3 0 1 32 8 3 0.809
820 187 1 120 0 1 0 34 8 2 1.009
821 187 1 121 3 1 1 31 8 3 0.997
822 187 1 122 0 1 0 34 8 0 0.894
823 187 1 123 0 1 2 35 8 3 1.067
824 187 1 124 2 1 3 31 8 2 1.31
825 187 1 125 2 1 1 36 8 2 0.796
826 187 1 126 3 0 1 35 8 3 0.89
827 187 1 127 3 0 2 31 8 3 0.955
828 187 2 128 1 0 0 33 8 1 0.916
829 187 2 129 0 1 1 31 8 2 0.896
830 187 2 130 3 0 0 32 8 3 0.813
831 187 2 131 1 0 1 32 8 1 0.778
832 187 2 132 3 0 0 31 8 3 0.808
833 187 2 133 2 0 0 31 8 2 0.829
834 187 2 134 3 1 0 40 8 3 0.748
835 187 2 135 1 1 1 32 8 1 0.894
836 187 2 136 1 1 1 32 8 1 1.155
837 187 2 137 1 0 0 31 8 2 1.108
838 187 2 138 0 1 1 38 8 2 0.781
839 187 2 139 3 1 2 34 8 3 0.906
840 187 2 140 3 1 3 31 8 3 0.774
841 187 2 141 3 1 0 33 8 3 0.839
842 187 2 142 0 1 3 32 8 0 0.702
843 187 2 143 1 0 2 32 8 2 0.854
844 187 2 144 3 1 3 31 8 3 0.76
845 187 2 145 0 0 2 32 8 2 1.151
846 187 2 146 1 0 1 40 8 1 1.106
847 187 2 147 3 1 2 34 8 3 0.904
848 187 2 148 0 0 1 31 8 0 1.681
849 187 2 149 1 1 2 31 8 1 0.826
850 187 2 150 2 1 0 31 8 2 0.889
851 187 2 151 1 0 2 31 8 1 1.579
852 187 2 152 3 0 1 32 8 3 0.724
853 187 2 153 1 0 3 31 8 2 2.948
854 187 2 154 1 0 0 33 8 1 1.191
855 187 2 155 1 1 3 32 8 1 1.866
856 187 2 156 2 0 1 31 8 2 1.064
857 187 2 157 2 0 1 34 8 2 0.844
858 187 2 158 0 1 3 32 8 3 0.971
859 187 2 159 2 0 3 33 8 2 0.918
860 187 2 160 3 0 3 41 8 3 1.862
861 187 2 161 3 1 0 33 8 1 0.856
862 187 2 162 2 0 1 32 8 2 0.823
863 187 2 163 2 1 1 35 8 2 0.87
864 187 2 164 2 0 0 31 8 2 1.097
865 187 2 165 0 0 2 33 8 0 1.251
866 187 2 166 3 0 2 37 8 3 0.832
867 187 2 167 0 1 3 34 8 2 0.84
868 187 2 168 2 1 2 36 8 1 0.97
869 187 2 169 0 0 0 31 8 3 3.292
870 187 2 170 0 0 1 31 8 0 1.332
871 187 2 171 3 0 2 31 8 0 1.085
872 187 2 172 3 1 2 34 8 2 1.207
873 187 2 173 1 1 0 36 8 0 0.844
874 187 2 174 3 1 2 31 8 3 1.079
875 187 2 175 0 0 0 32 8 0 0.81
876 187 2 176 3 1 1 32 8 3 0.754
877 187 2 177 3 0 3 31 8 2 1.449
878 187 2 178 3 1 0 32 8 1 1.341
879 187 2 179 3 0 0 32 8 3 0.746
880 187 2 180 3 1 1 31 8 2 0.957
881 187 2 181 1 0 1 32 8 1 0.936
882 187 2 182 0 1 1 32 8 3 1.067
883 187 2 183 3 0 2 31 8 3 1.114
884 187 2 184 1 0 3 32 8 2 1.652
885 187 2 185 3 0 0 35 8 3 1.398
886 187 2 186 1 0 2 31 8 2 1.278
887 187 2 187 2 1 1 36 8 3 1.662
888 187 2 188 0 1 2 31 8 2 0.923
889 187 2 189 2 0 3 32 8 2 1.327
890 187 2 190 1 0 1 31 8 1 0.745
891 187 2 191 3 1 1 32 8 3 0.764
892 187 3 192 1 0 2 36 8 2 1.329
893 187 3 193 3 0 1 31 8 3 5.279
894 187 3 194 3 0 0 31 8 2 1.748
895 187 3 195 2 1 1 32 8 2 0.854
896 187 3 196 2 0 3 32 8 1 2.281
897 187 3 197 2 0 1 32 8 2 0.748
898 187 3 198 1 0 0 33 8 1 0.828
899 187 3 199 2 0 1 33 8 2 2.144
900 187 3 200 1 1 0 35 8 2 0.792
901 187 3 201 2 1 3 31 8 2 0.828
902 187 3 202 0 0 0 32 8 0 0.752
903 187 3 203 0 0 2 32 8 1 1.103
904 187 3 204 2 1 2 31 8 1 1.072
905 187 3 205 0 0 0 36 8 0 0.783
906 187 3 206 2 1 2 31 8 2 1.655
907 187 3 207 0 1 3 31 8 0 0.833
908 187 3 208 1 1 2 31 8 0 0.904
909 187 3 209 3 0 1 32 8 3 1.021
910 187 3 210 2 1 2 35 8 2 1.341
911 187 3 211 3 1 3 37 8 3 0.994
912 187 3 212 3 0 3 31 8 3 1.088
913 187 3 213 1 0 3 36 8 1 0.867
914 187 3 214 1 0 1 31 8 1 0.973
915 187 3 215 2 1 0 33 8 2 2.175
916 187 3 216 3 0 1 31 8 3 0.851
917 187 3 217 3 0 1 31 8 3 0.718
918 187 3 218 2 1 2 33 8 2 1.065
919 187 3 219 0 0 1 31 8 0 0.645
920 187 3 220 2 0 3 32 8 2 0.92
921 187 3 221 3 1 2 34 8 3 1.043
922 187 3 222 0 0 0 31 8 0 0.696
923 187 3 223 0 1 2 31 8 1 3.013
924 187 3 224 0 1 1 33 8 0 0.817
925 187 3 225 2 0 0 35 8 2 0.685
926 187 3 226 3 0 0 31 8 3 0.67
927 187 3 227 1 1 2 33 8 1 1.019
928 187 3 228 2 0 1 32 8 2 0.792
929 187 3 229 0 0 1 31 8 0 0.846
930 187 3 230 1 1 3 37 8 3 0.861
931 187 3 231 0 0 3 32 8 2 2.251
932 187 3 232 2 1 1 41 8 1 1.139
933 187 3 233 1 1 3 34 8 2 0.985
934 187 3 234 0 1 3 33 8 0 1.83
935 187 3 235 2 1 2 31 8 3 0.993
936 187 3 236 0 0 0 31 8 0 0.883
937 187 3 237 0 1 3 32 8 1 0.824
938 187 3 238 1 1 3 31 8 1 0.995
939 187 3 239 2 1 0 32 8 2 0.869
940 187 3 240 1 1 3 31 8 2 1.378
941 187 3 241 3 1 2 31 8 3 1.034
942 187 3 242 0 1 2 31 8 2 1.697
943 187 3 243 2 1 0 31 8 2 1.157
944 187 3 244 1 0 1 38 8 1 1.165
945 187 3 245 0 1 0 32 8 0 0.912
946 187 3 246 0 1 3 34 8 3 2.036
947 187 3 247 2 1 3 31 8 1 0.796
948 187 3 248 3 0 3 32 8 3 0.805
949 187 3 249 2 1 3 33 8 1 1.165
950 187 3 250 0 0 2 32 8 2 1.113
951 187 3 251 2 1 1 34 8 1 1.098
952 187 3 252 2 0 1 35 8 2 0.824
953 187 3 253 1 1 1 36 8 1 1.119
954 187 3 254 0 1 1 31 8 0 0.692
955 187 3 255 2 1 2 32 8 1 1.328
956 187 4 256 1 0 1 32 8 1 0.887
957 187 4 257 1 1 2 33 8 1 1.108
958 187 4 258 2 0 0 32 8 2 0.758
959 187 4 259 0 0 3 31 8 3 2.036
960 187 4 260 3 0 3 31 8 0 1.801
961 187 4 261 2 0 1 31 8 2 0.701
962 187 4 262 1 1 3 34 8 2 1.097
963 187 4 263 3 0 2 31 8 3 0.807
964 187 4 264 1 1 1 35 8 1 0.751
965 187 4 265 1 1 0 33 8 2 0.905
966 187 4 266 0 0 2 32 8 3 1.07
967 187 4 267 2 0 2 32 8 2 0.917
968 187 4 268 1 0 2 31 8 1 0.813
969 187 4 269 2 0 2 33 8 2 0.786
970 187 4 270 0 0 1 31 8 0 0.744
971 187 4 271 2 1 0 33 8 2 1.034
972 187 4 272 3 0 3 33 8 3 0.991
973 187 4 273 0 1 3 35 8 2 1.048
974 187 4 274 0 1 1 31 8 0 0.803
975 187 4 275 1 0 2 33 8 2 0.776
976 187 4 276 2 0 2 35 8 2 0.85
977 187 4 277 2 0 2 32 8 2 0.749
978 187 4 278 2 1 3 33 8 2 0.935
979 187 4 279 1 1 2 36 8 3 1.059
980 187 4 280 2 0 0 31 8 2 0.89
981 187 4 281 1 1 0 34 8 2 0.831
982 187 4 282 0 0 3 31 8 0 0.775
983 187 4 283 0 0 3 32 8 0 0.797
984 187 4 284 0 0 2 31 8 3 0.81
985 187 4 285 3 1 2 35 8 1 2.014
986 187 4 286 1 0 3 32 8 1 0.915
987 187 4 287 2 0 0 34 8 2 0.932
988 187 4 288 1 0 3 39 8 3 0.973
989 187 4 289 3 1 3 32 8 3 0.978
990 187 4 290 2 1 3 31 8 2 1.188
991 187 4 291 2 1 1 33 8 1 3.911
992 187 4 292 3 1 1 33 8 0 4.331
993 187 4 293 1 0 3 32 8 2 8.374
994 187 4 294 3 1 3 32 8 2 11.962
995 187 4 295 3 0 0 33 8 3 1.019
996 187 4 296 2 0 1 35 8 2 1.24
997 187 4 297 3 1 0 31 8 3 1.033
998 187 4 298 3 0 2 32 8 2 2.35
999 187 4 299 0 1 0 33 8 3 1.098
1000 187 4 300 1 1 2 32 8 2 24.286
1001 187 4 301 0 1 1 31 8 0 0.921
1002 187 4 302 3 0 2 40 8 3 0.761
1003 187 4 303 1 0 1 37 8 1 0.8
1004 187 4 304 3 0 3 31 8 3 0.829
1005 187 4 305 1 1 2 34 8 1 0.933
1006 187 4 306 1 1 2 33 8 1 0.848
1007 187 4 307 3 0 1 35 8 3 0.811
1008 187 4 308 1 0 0 31 8 2 0.92
1009 187 4 309 0 1 0 31 8 0 0.847
1010 187 4 310 2 1 0 31 8 2 1.102
1011 187 4 311 1 1 0 34 8 1 1.027
1012 187 4 312 2 1 2 31 8 1 1.02
1013 187 4 313 3 1 3 32 8 0 1.376
1014 187 4 314 0 0 1 33 8 0 1.26
1015 187 4 315 0 1 2 35 8 3 0.988
1016 187 4 316 2 0 0 35 8 2 1.182
1017 187 4 317 3 0 2 31 8 2 1.293
1018 187 4 318 1 0 0 35 8 2 0.768
1019 187 4 319 3 1 3 32 8 3 0.965
1020 188 0 0 3 1 3 34 8 2 3.536
1021 188 0 1 1 1 2 32 8 0 2.723
1022 188 0 2 0 0 0 35 8 0 0.994
1023 188 0 3 3 1 1 34 8 3 1.535
1024 188 0 4 3 1 3 38 8 1 1.488
1025 188 0 5 1 1 1 32 8 1 2.19
1026 188 0 6 1 0 2 31 8 1 0.725
1027 188 0 7 2 0 0 32 8 2 1.094
1028 188 0 8 1 0 1 31 8 1 1.083
1029 188 0 9 3 1 0 32 8 3 1.205
1030 188 0 10 2 0 2 32 8 2 0.926
1031 188 0 11 1 1 2 31 8 3 0.982
1032 188 0 12 1 1 2 36 8 2 1.006
1033 188 0 13 3 0 0 34 8 3 0.843
1034 188 0 14 3 0 3 31 8 3 0.777
1035 188 0 15 1 0 0 32 8 1 0.746
1036 188 0 16 2 1 3 36 8 3 0.96
1037 188 0 17 0 1 2 35 8 3 0.802
1038 188 0 18 2 1 1 41 8 3 1.128
1039 188 0 19 2 1 1 37 8 3 0.764
1040 188 0 20 0 1 3 31 8 3 1.005
1041 188 0 21 3 0 0 38 8 3 0.76
1042 188 0 22 1 1 1 34 8 3 0.979
1043 188 0 23 3 1 0 36 8 2 1.059
1044 188 0 24 3 0 2 32 8 3 5.317
1045 188 0 25 3 1 0 34 8 3 0.975
1046 188 0 26 2 0 2 34 8 2 0.889
1047 188 0 27 3 0 3 31 8 3 0.822
1048 188 0 28 0 1 0 31 8 2 1.136
1049 188 0 29 0 0 0 31 8 0 0.832
1050 188 0 30 2 1 3 37 8 2 1.202
1051 188 0 31 3 0 1 35 8 3 0.859
1052 188 0 32 3 1 0 42 8 3 0.709
1053 188 0 33 0 1 2 31 8 3 0.796
1054 188 0 34 1 1 1 33 8 2 0.819
1055 188 0 35 3 0 2 33 8 3 0.876
1056 188 0 36 0 0 2 42 8 0 0.962
1057 188 0 37 1 0 2 31 8 1 0.893
1058 188 0 38 1 1 3 34 8 3 0.906
1059 188 0 39 0 1 2 32 8 3 0.741
1060 188 0 40 1 1 3 31 8 3 1.726
1061 188 0 41 3 0 0 31 8 3 0.793
1062 188 0 42 1 1 3 31 8 2 0.781
1063 188 0 43 1 1 1 31 8 3 0.973
1064 188 0 44 2 0 3 34 8 0 0.834
1065 188 0 45 2 0 0 35 8 2 0.741
1066 188 0 46 2 0 1 31 8 2 0.814
1067 188 0 47 0 0 1 31 8 0 0.797
1068 188 0 48 3 0 0 35 8 3 0.75
1069 188 0 49 1 1 1 31 8 3 0.747
1070 188 0 50 0 1 3 32 8 3 0.724
1071 188 0 51 0 0 0 32 8 0 0.758
1072 188 0 52 0 1 1 31 8 3 1.363
1073 188 0 53 0 1 1 31 8 2 2.51
1074 188 0 54 2 1 3 33 8 3 1.968
1075 188 0 55 1 1 3 32 8 0 1.341
1076 188 0 56 2 0 2 31 8 0 1.294
1077 188 0 57 0 1 1 32 8 0 3.986
1078 188 0 58 1 1 0 35 8 1 1.179
1079 188 0 59 2 0 1 31 8 2 1.566
1080 188 0 60 3 0 2 31 8 3 1.035
1081 188 0 61 2 0 3 33 8 2 0.906
1082 188 0 62 0 1 0 31 8 1 0.93
1083 188 0 63 2 1 0 33 8 3 2.11
1084 188 1 64 2 0 3 31 8 2 1.059
1085 188 1 65 1 0 0 34 8 1 0.706
1086 188 1 66 0 0 1 31 8 0 0.742
1087 188 1 67 1 0 1 34 8 1 0.736
1088 188 1 68 3 0 3 36 8 3 0.819
1089 188 1 69 0 0 3 34 8 0 0.722
1090 188 1 70 3 1 3 38 8 0 0.689
1091 188 1 71 0 0 2 31 8 0 0.689
1092 188 1 72 1 1 0 31 8 0 0.768
1093 188 1 73 0 1 0 39 8 0 0.496
1094 188 1 74 2 1 2 31 8 3 1.039
1095 188 1 75 2 0 2 31 8 2 0.521
1096 188 1 76 0 0 3 34 8 0 0.747
1097 188 1 77 2 1 2 32 8 0 0.872
1098 188 1 78 3 0 1 32 8 0 0.809
1099 188 1 79 1 0 1 32 8 1 1.237
1100 188 1 80 0 0 1 34 8 1 0.965
1101 188 1 81 1 1 3 32 8 3 1.055
1102 188 1 82 0 1 1 31 8 1 0.88
1103 188 1 83 1 0 0 32 8 1 1.026
1104 188 1 84 2 1 0 31 8 0 2.053
1105 188 1 85 0 0 2 34 8 3 1.164
1106 188 1 86 3 1 0 34 8 3 0.631
1107 188 1 87 1 0 3 32 8 3 0.613
1108 188 1 88 3 1 3 40 8 3 0.531
1109 188 1 89 2 0 3 31 8 2 0.679
1110 188 1 90 1 0 3 35 8 1 0.675
1111 188 1 91 0 0 3 32 8 0 0.824
1112 188 1 92 1 1 1 33 8 2 1.067
1113 188 1 93 2 1 0 33 8 0 0.832
1114 188 1 94 0 1 1 31 8 3 0.91
1115 188 1 95 2 1 3 31 8 3 0.642
1116 188 1 96 1 0 2 32 8 1 0.691
1117 188 1 97 0 1 0 39 8 0 0.859
1118 188 1 98 2 1 0 33 8 1 0.636
1119 188 1 99 0 1 0 33 8 3 0.897
1120 188 1 100 3 1 1 31 8 1 0.981
1121 188 1 101 3 1 2 33 8 3 0.91
1122 188 1 102 2 0 2 31 8 2 0.698
1123 188 1 103 1 0 3 31 8 0 0.823
1124 188 1 104 3 1 0 31 8 0 0.717
1125 188 1 105 2 0 0 31 8 0 0.659
1126 188 1 106 1 0 2 31 8 2 0.86
1127 188 1 107 0 1 2 31 8 3 0.897
1128 188 1 108 2 0 2 32 8 2 0.666
1129 188 1 109 1 0 0 40 8 1 0.855
1130 188 1 110 2 0 3 32 8 2 0.701
1131 188 1 111 3 1 0 35 8 1 0.669
1132 188 1 112 3 1 3 31 8 3 0.843
1133 188 1 113 3 0 1 31 8 3 0.642
1134 188 1 114 0 0 1 31 8 0 0.792
1135 188 1 115 1 0 1 34 8 2 0.689
1136 188 1 116 3 1 2 31 8 3 0.876
1137 188 1 117 2 1 3 31 8 3 0.621
1138 188 1 118 3 0 0 33 8 3 0.559
1139 188 1 119 2 0 0 32 8 2 0.712
1140 188 1 120 0 0 1 32 8 0 0.748
1141 188 1 121 0 0 3 33 8 2 0.726
1142 188 1 122 2 1 3 31 8 2 0.463
1143 188 1 123 1 0 0 31 8 0 0.731
1144 188 1 124 2 1 0 31 8 0 0.717
1145 188 1 125 2 1 3 38 8 2 0.839
1146 188 1 126 2 0 0 36 8 2 0.67
1147 188 1 127 1 1 3 42 8 2 0.678
1148 188 2 128 0 1 0 31 8 0 1.024
1149 188 2 129 0 0 0 35 8 0 0.424
1150 188 2 130 0 0 2 31 8 2 0.702
1151 188 2 131 0 1 3 33 8 1 0.888
1152 188 2 132 0 0 3 39 8 2 0.809
1153 188 2 133 3 0 2 34 8 2 0.581
1154 188 2 134 1 1 2 31 8 2 0.596
1155 188 2 135 3 0 3 33 8 3 1.151
1156 188 2 136 0 0 3 39 8 0 0.786
1157 188 2 137 0 0 0 32 8 0 0.683
1158 188 2 138 2 0 1 31 8 2 0.84
1159 188 2 139 0 0 2 31 8 0 0.838
1160 188 2 140 2 1 1 33 8 3 0.993
1161 188 2 141 2 0 2 32 8 2 0.934
1162 188 2 142 1 1 2 33 8 1 0.852
1163 188 2 143 1 0 1 33 8 2 0.802
1164 188 2 144 1 1 0 33 8 0 0.825
1165 188 2 145 1 0 3 32 8 1 0.54
1166 188 2 146 1 0 3 36 8 1 0.758
1167 188 2 147 1 0 3 33 8 1 0.511
1168 188 2 148 1 1 2 32 8 1 0.581
1169 188 2 149 2 0 3 34 8 1 0.565
1170 188 2 150 2 1 3 32 8 2 0.917
1171 188 2 151 1 1 0 31 8 1 0.636
1172 188 2 152 2 1 2 31 8 1 0.741
1173 188 2 153 1 0 1 35 8 3 0.891
1174 188 2 154 2 0 3 33 8 2 0.652
1175 188 2 155 2 0 0 34 8 2 0.617
1176 188 2 156 0 0 3 31 8 0 0.752
1177 188 2 157 0 1 2 33 8 0 0.701
1178 188 2 158 1 1 0 33 8 1 0.605
1179 188 2 159 2 1 2 32 8 1 0.855
1180 188 2 160 2 1 0 32 8 1 1.284
1181 188 2 161 0 1 2 31 8 1 0.802
1182 188 2 162 0 1 3 31 8 3 1.017
1183 188 2 163 2 1 2 31 8 1 1.048
1184 188 2 164 1 0 1 31 8 1 0.739
1185 188 2 165 2 0 0 31 8 2 0.702
1186 188 2 166 0 0 2 31 8 0 0.817
1187 188 2 167 1 0 0 39 8 1 0.833
1188 188 2 168 0 1 3 33 8 1 1.435
1189 188 2 169 0 0 1 32 8 0 0.768
1190 188 2 170 0 0 0 34 8 0 0.49
1191 188 2 171 3 0 1 33 8 3 0.877
1192 188 2 172 1 0 2 31 8 2 0.931
1193 188 2 173 3 1 1 32 8 3 0.797
1194 188 2 174 1 0 1 32 8 1 0.678
1195 188 2 175 0 0 0 32 8 0 0.723
1196 188 2 176 0 0 3 34 8 0 0.694
1197 188 2 177 3 0 2 34 8 3 0.834
1198 188 2 178 3 1 1 31 8 3 0.94
1199 188 2 179 3 1 2 33 8 3 0.787
1200 188 2 180 2 1 1 39 8 3 0.686
1201 188 2 181 3 1 2 32 8 3 0.546
1202 188 2 182 3 0 0 37 8 3 0.578
1203 188 2 183 0 0 2 43 8 0 0.778
1204 188 2 184 3 1 2 32 8 3 0.903
1205 188 2 185 2 0 3 32 8 2 0.651
1206 188 2 186 3 1 3 34 8 3 0.66
1207 188 2 187 1 1 3 34 8 1 0.692
1208 188 2 188 0 1 2 33 8 3 0.7
1209 188 2 189 1 1 2 31 8 2 0.583
1210 188 2 190 2 1 2 33 8 2 0.558
1211 188 2 191 2 1 1 31 8 1 0.77
1212 188 3 192 3 0 3 32 8 3 0.727
1213 188 3 193 1 0 3 33 8 2 1.074
1214 188 3 194 2 0 2 35 8 2 0.924
1215 188 3 195 2 0 1 31 8 3 1.024
1216 188 3 196 0 0 0 33 8 2 0.756
1217 188 3 197 3 0 2 33 8 3 0.561
1218 188 3 198 2 1 1 34 8 3 0.749
1219 188 3 199 1 1 3 32 8 3 0.702
1220 188 3 200 2 1 2 31 8 2 1.169
1221 188 3 201 1 1 2 31 8 2 0.575
1222 188 3 202 3 0 0 34 8 3 0.962
1223 188 3 203 1 0 2 33 8 1 0.788
1224 188 3 204 1 1 2 33 8 0 0.8
1225 188 3 205 1 1 2 33 8 1 1.023
1226 188 3 206 1 1 1 31 8 1 0.843
1227 188 3 207 3 0 1 31 8 3 1.658
1228 188 3 208 0 1 2 31 8 2 0.823
1229 188 3 209 3 1 2 31 8 3 0.733
1230 188 3 210 0 1 0 32 8 3 0.749
1231 188 3 211 1 0 0 34 8 1 0.779
1232 188 3 212 0 0 2 31 8 0 0.844
1233 188 3 213 0 0 2 32 8 0 0.867
1234 188 3 214 1 0 0 33 8 1 0.68
1235 188 3 215 0 1 1 31 8 3 0.816
1236 188 3 216 1 0 1 31 8 1 0.7
1237 188 3 217 0 1 3 34 8 3 0.787
1238 188 3 218 1 0 2 31 8 3 0.689
1239 188 3 219 0 1 0 37 8 1 0.924
1240 188 3 220 3 0 3 31 8 3 0.94
1241 188 3 221 0 0 0 34 8 0 0.759
1242 188 3 222 2 1 1 33 8 1 0.836
1243 188 3 223 2 1 2 35 8 3 0.954
1244 188 3 224 3 1 1 35 8 3 0.619
1245 188 3 225 3 1 1 31 8 3 0.565
1246 188 3 226 1 0 0 32 8 3 0.656
1247 188 3 227 1 1 0 34 8 1 0.796
1248 188 3 228 3 0 2 34 8 3 0.829
1249 188 3 229 2 1 1 38 8 3 0.695
1250 188 3 230 0 1 3 36 8 3 0.546
1251 188 3 231 3 0 0 32 8 3 0.318
1252 188 3 232 2 0 2 32 8 3 0.4
1253 188 3 233 1 0 0 32 8 1 0.859
1254 188 3 234 1 1 3 31 8 3 0.844
1255 188 3 235 0 0 1 31 8 0 0.759
1256 188 3 236 0 1 2 32 8 1 0.979
1257 188 3 237 3 0 0 32 8 3 1.121
1258 188 3 238 2 0 0 32 8 2 0.694
1259 188 3 239 3 1 1 33 8 3 0.629
1260 188 3 240 2 0 0 34 8 3 0.524
1261 188 3 241 2 1 1 42 8 1 0.909
1262 188 3 242 2 0 1 35 8 3 0.797
1263 188 3 243 3 1 3 31 8 3 0.766
1264 188 3 244 1 0 2 33 8 3 0.68
1265 188 3 245 0 0 1 33 8 0 0.728
1266 188 3 246 2 1 2 31 8 3 0.75
1267 188 3 247 2 0 0 31 8 1 0.916
1268 188 3 248 1 0 2 31 8 3 0.9
1269 188 3 249 3 1 3 31 8 3 0.712
1270 188 3 250 2 1 0 31 8 1 0.702
1271 188 3 251 2 0 3 32 8 2 0.923
1272 188 3 252 3 1 1 34 8 3 0.731
1273 188 3 253 1 0 3 35 8 1 0.758
1274 188 3 254 1 1 0 32 8 1 0.699
1275 188 3 255 3 0 2 32 8 3 1.135
1276 188 4 256 3 1 0 33 8 3 0.654
1277 188 4 257 2 1 0 31 8 1 0.855
1278 188 4 258 3 0 1 42 8 2 0.535
1279 188 4 259 2 0 1 37 8 3 1.22
1280 188 4 260 3 0 1 37 8 3 0.449
1281 188 4 261 2 1 0 31 8 1 1.145
1282 188 4 262 3 1 0 33 8 2 0.628
1283 188 4 263 3 1 0 37 8 2 0.442
1284 188 4 264 2 1 2 32 8 2 0.494
1285 188 4 265 2 1 3 35 8 2 0.516
1286 188 4 266 2 0 2 33 8 2 0.502
1287 188 4 267 1 0 3 33 8 2 0.569
1288 188 4 268 3 1 3 31 8 3 1.36
1289 188 4 269 2 0 3 31 8 2 0.541
1290 188 4 270 0 0 2 31 8 0 1.094
1291 188 4 271 0 1 0 31 8 2 0.863
1292 188 4 272 3 0 3 37 8 3 1.337
1293 188 4 273 0 0 3 32 8 0 1.014
1294 188 4 274 0 1 3 31 8 2 0.715
1295 188 4 275 3 1 2 32 8 2 0.805
1296 188 4 276 3 0 2 36 8 3 0.689
1297 188 4 277 2 1 0 33 8 3 0.648
1298 188 4 278 3 1 1 37 8 3 0.525
1299 188 4 279 1 0 1 32 8 3 0.519
1300 188 4 280 0 1 1 33 8 3 0.463
1301 188 4 281 1 1 1 33 8 3 0.827
1302 188 4 282 3 1 1 32 8 2 0.689
1303 188 4 283 2 0 1 31 8 0 0.758
1304 188 4 284 3 0 1 33 8 1 0.507
1305 188 4 285 2 1 1 31 8 1 0.533
1306 188 4 286 0 1 1 32 8 1 0.502
1307 188 4 287 0 1 1 31 8 1 0.423
1308 188 4 288 0 0 1 31 8 0 1.937
1309 188 4 289 1 1 3 32 8 3 0.98
1310 188 4 290 0 0 3 31 8 0 1.097
1311 188 4 291 0 1 2 33 8 0 0.419
1312 188 4 292 3 1 3 33 8 0 1.347
1313 188 4 293 0 0 1 31 8 0 0.548
1314 188 4 294 3 0 3 32 8 3 1.142
1315 188 4 295 1 1 1 32 8 2 0.733
1316 188 4 296 3 1 2 31 8 2 0.599
1317 188 4 297 2 0 1 39 8 2 0.514
1318 188 4 298 3 0 3 36 8 3 1.149
1319 188 4 299 0 0 0 31 8 0 0.913
1320 188 4 300 0 1 3 32 8 3 1.113
1321 188 4 301 1 1 0 32 8 1 0.957
1322 188 4 302 3 0 1 32 8 3 0.791
1323 188 4 303 3 1 2 43 8 3 0.755
1324 188 4 304 0 1 3 35 8 3 0.438
1325 188 4 305 3 0 1 32 8 3 0.494
1326 188 4 306 2 0 1 36 8 2 0.77
1327 188 4 307 2 0 1 32 8 2 0.491
1328 188 4 308 2 1 3 31 8 3 1.089
1329 188 4 309 3 1 2 31 8 2 0.51
1330 188 4 310 3 0 2 33 8 3 0.676
1331 188 4 311 1 1 1 31 8 3 0.58
1332 188 4 312 3 0 3 31 8 3 0.424
1333 188 4 313 0 1 1 33 8 3 0.561
1334 188 4 314 1 0 3 31 8 3 0.51
1335 188 4 315 1 1 0 35 8 1 1.287
1336 188 4 316 0 1 0 33 8 1 0.673
1337 188 4 317 1 1 0 32 8 1 0.451
1338 188 4 318 1 0 2 32 8 2 0.887
1339 188 4 319 3 0 0 40 8 3 0.801
