datID sessionID block trial target cue location forePeriod cuetime resp rt
1 227 0 0 3 1 2 34 3 3 0.477
2 227 0 1 1 0 2 33 3 1 1.329
3 227 0 2 0 0 0 31 3 0 0.631
4 227 0 3 2 0 1 34 3 2 0.766
5 227 0 4 2 1 0 35 3 1 0.655
6 227 0 5 0 0 2 32 3 0 0.656
7 227 0 6 0 1 3 33 3 3 1.117
8 227 0 7 1 0 2 31 3 1 0.509
9 227 0 8 0 1 3 31 3 0 0.511
10 227 0 9 0 0 2 32 3 3 0.691
11 227 0 10 1 0 2 32 3 1 0.49
12 227 0 11 2 1 3 34 3 2 0.957
13 227 0 12 0 0 3 33 3 0 0.512
14 227 0 13 0 1 1 32 3 0 0.602
15 227 0 14 2 0 1 31 3 2 0.554
16 227 0 15 2 0 2 32 3 2 0.515
17 227 0 16 0 1 3 31 3 2 0.78
18 227 0 17 0 1 1 33 3 0 0.432
19 227 0 18 3 1 1 31 3 3 0.55
20 227 0 19 2 0 3 38 3 3 0.8
21 227 0 20 2 1 3 33 3 2 0.571
22 227 0 21 2 1 2 31 3 2 0.891
23 227 0 22 2 0 2 36 3 1 1.128
24 227 0 23 3 0 0 36 3 3 0.657
25 227 0 24 2 1 0 35 3 1 0.718
26 227 0 25 2 0 2 34 3 2 0.493
27 227 0 26 0 0 1 34 3 0 0.504
28 227 0 27 3 0 3 33 3 3 0.555
29 227 0 28 0 0 3 34 3 0 0.565
30 227 0 29 1 1 2 35 3 1 0.581
31 227 0 30 1 1 3 34 3 1 0.549
32 227 0 31 2 1 1 32 3 2 0.494
33 227 0 32 2 1 0 31 3 1 0.472
34 227 0 33 2 0 0 34 3 2 0.528
35 227 0 34 3 0 0 42 3 3 0.499
36 227 0 35 2 0 1 32 3 1 0.606
37 227 0 36 3 1 0 35 3 2 0.697
38 227 0 37 0 0 1 33 3 1 0.969
39 227 0 38 1 0 2 33 3 1 0.719
40 227 0 39 3 0 2 31 3 3 1.242
41 227 0 40 0 1 3 34 3 0 0.602
42 227 0 41 3 1 0 33 3 3 0.585
43 227 0 42 0 1 1 32 3 0 0.52
44 227 0 43 0 1 2 32 3 0 0.457
45 227 0 44 3 1 1 35 3 3 0.525
46 227 0 45 3 0 2 31 3 3 0.864
47 227 0 46 1 0 3 31 3 2 0.79
48 227 0 47 1 1 1 31 3 1 0.498
49 227 0 48 0 1 0 34 3 0 0.469
50 227 0 49 0 0 0 40 3 0 0.489
51 227 0 50 1 1 3 31 3 1 0.54
52 227 0 51 2 1 1 33 3 2 0.437
53 227 0 52 1 0 3 35 3 3 0.611
54 227 0 53 3 1 3 32 3 2 0.765
55 227 0 54 1 0 2 31 3 1 0.571
56 227 0 55 0 1 2 34 3 2 0.714
57 227 0 56 1 0 0 32 3 1 0.658
58 227 0 57 1 0 3 32 3 1 0.544
59 227 0 58 2 0 1 32 3 2 0.657
60 227 0 59 3 0 3 31 3 3 0.639
61 227 0 60 0 0 2 32 3 1 0.605
62 227 0 61 2 1 3 33 3 2 0.823
63 227 0 62 3 1 3 35 3 3 0.622
64 227 0 63 0 1 2 31 3 1 0.732
65 242 0 0 1 1 3 35 3 2 0.547
66 242 0 1 0 0 1 33 3 1 0.352
67 242 0 2 3 1 0 34 3 2 0.635
68 243 0 0 0 1 3 33 3 1 0.608
69 243 0 1 1 1 2 39 3 1 0.481
70 246 0 0 2 0 2 33 3 0 1.46
71 246 0 1 1 1 1 37 3 0 0.527
72 246 0 2 1 0 3 32 3 0 0.508
73 246 0 3 0 1 1 31 3 1 1.026
74 246 0 4 1 1 1 32 3 1 0.94
75 246 0 5 1 1 3 37 3 0 0.799
76 246 0 6 3 1 3 31 3 3 1.088
77 246 0 7 0 0 3 36 3 0 0.526
78 246 0 8 0 1 0 33 3 0 0.535
79 246 0 9 2 0 2 32 3 1 0.945
80 246 0 10 1 0 2 34 3 3 1.175
81 246 0 11 3 1 0 32 3 3 0.725
82 246 0 12 0 0 1 31 3 1 0.683
83 246 0 13 2 0 2 36 3 0 0.579
84 246 0 14 3 1 2 32 3 1 0.702
85 246 0 15 1 0 0 38 3 1 0.606
86 246 0 16 0 0 0 34 3 1 0.605
87 246 0 17 3 0 2 33 3 3 0.919
88 246 0 18 0 1 2 35 3 0 1.018
89 246 0 19 2 0 3 37 3 1 0.671
90 246 0 20 0 1 1 32 3 1 0.758
91 246 0 21 2 0 0 33 3 1 0.651
92 246 0 22 1 1 1 33 3 0 0.619
93 246 0 23 2 1 3 33 3 3 0.932
94 246 0 24 2 0 3 34 3 1 0.587
95 246 0 25 1 1 1 33 3 0 0.557
96 246 0 26 1 1 0 31 3 2 0.648
97 246 0 27 2 0 1 33 3 1 0.49
98 246 0 28 3 0 1 33 3 3 0.808
99 246 0 29 0 1 2 31 3 3 0.679
100 246 0 30 1 0 2 32 3 3 0.671
101 246 0 31 1 1 3 32 3 1 0.718
102 246 0 32 3 0 3 35 3 3 0.521
103 246 0 33 2 1 3 33 3 3 0.594
104 246 0 34 0 0 2 34 3 3 0.685
105 246 0 35 1 1 0 31 3 3 0.676
106 246 0 36 2 0 0 36 3 1 0.637
107 246 0 37 0 0 3 31 3 0 0.758
108 246 0 38 0 0 1 35 3 0 0.495
109 246 0 39 0 0 0 31 3 0 0.466
110 246 0 40 2 0 3 31 3 0 0.439
111 246 0 41 1 1 2 32 3 1 0.566
112 246 0 42 3 0 3 33 3 0 0.423
113 246 0 43 1 0 2 32 3 1 0.584
114 246 0 44 2 0 1 31 3 1 0.472
115 246 0 45 2 0 2 31 3 2 1.023
116 246 0 46 1 1 2 31 3 0 0.838
117 246 0 47 1 0 3 33 3 0 0.464
118 246 0 48 0 0 3 33 3 0 0.839
119 246 0 49 1 0 3 33 3 0 0.574
120 246 0 50 3 1 2 32 3 3 0.504
121 246 0 51 3 0 0 31 3 1 0.675
122 246 0 52 3 1 3 35 3 3 0.618
123 246 0 53 1 1 1 31 3 0 0.503
124 246 0 54 2 0 1 33 3 0 0.47
125 246 0 55 2 1 1 31 3 1 0.516
126 246 0 56 2 1 3 31 3 2 0.713
127 246 0 57 0 0 3 32 3 0 0.565
128 246 0 58 3 0 2 32 3 2 0.51
129 246 0 59 0 0 3 32 3 0 0.444
130 246 0 60 0 1 3 36 3 0 0.431
131 246 0 61 2 1 1 32 3 3 0.716
132 246 0 62 2 0 1 31 3 0 0.563
133 246 0 63 3 1 1 33 3 3 0.966
134 246 1 64 0 1 3 32 3 1 0.57
135 246 1 65 2 0 1 31 3 1 0.446
136 246 1 66 1 1 0 48 3 0 0.509
137 246 1 67 1 1 1 33 3 0 0.506
138 246 1 68 2 1 2 34 3 1 0.575
139 246 1 69 3 0 0 32 3 3 0.923
140 246 1 70 2 0 0 31 3 1 0.615
141 246 1 71 1 0 1 32 3 1 0.505
142 246 1 72 3 0 1 31 3 3 0.54
143 246 1 73 2 0 1 33 3 1 0.589
144 246 1 74 2 1 3 33 3 3 0.575
145 246 1 75 2 1 0 32 3 1 0.594
146 246 1 76 2 1 3 33 3 0 0.564
147 246 1 77 0 0 0 34 3 3 0.736
148 246 1 78 0 1 0 46 3 3 0.581
149 246 1 79 0 1 1 32 3 0 0.432
150 246 1 80 0 0 3 36 3 3 0.909
151 246 1 81 3 0 0 31 3 3 0.669
152 246 1 82 1 0 3 31 3 2 1.217
153 246 1 83 0 0 0 31 3 0 0.606
154 246 1 84 0 1 2 33 3 0 0.516
155 246 1 85 1 0 1 34 3 1 0.646
156 246 1 86 0 0 2 35 3 3 0.508
157 246 1 87 1 1 0 31 3 1 0.393
158 246 1 88 1 0 1 32 3 1 0.416
159 246 1 89 1 1 2 33 3 0 0.493
160 246 1 90 0 1 0 32 3 1 0.571
161 246 1 91 0 1 0 36 3 3 0.421
162 246 1 92 0 1 3 34 3 0 0.677
163 246 1 93 3 1 2 32 3 3 0.489
164 246 1 94 0 1 2 31 3 2 0.995
165 246 1 95 0 0 3 35 3 3 0.776
166 246 1 96 2 0 2 31 3 0 0.605
167 246 1 97 2 1 2 31 3 1 0.598
168 246 1 98 2 1 2 33 3 2 0.92
169 246 1 99 0 1 2 31 3 2 0.723
170 246 1 100 1 0 1 36 3 0 0.433
171 246 1 101 3 0 2 31 3 3 0.458
172 246 1 102 2 0 0 34 3 2 1.094
173 246 1 103 1 0 2 32 3 3 0.7
174 246 1 104 2 0 1 31 3 2 0.748
175 246 1 105 1 1 2 32 3 1 0.637
176 246 1 106 1 1 0 32 3 1 0.394
177 246 1 107 0 1 2 31 3 0 0.431
178 246 1 108 2 1 3 34 3 3 1.004
179 246 1 109 1 0 3 32 3 1 1.24
180 246 1 110 2 1 0 32 3 1 0.44
181 246 1 111 0 0 3 31 3 3 0.688
182 246 1 112 3 0 2 31 3 3 0.615
183 246 1 113 0 0 2 32 3 1 0.934
184 246 1 114 2 0 1 31 3 2 0.749
185 246 1 115 0 0 1 31 3 1 0.679
186 246 1 116 2 1 2 31 3 3 0.686
187 246 1 117 0 0 0 31 3 1 0.726
188 246 1 118 0 0 2 31 3 3 0.468
189 246 1 119 1 0 0 36 3 1 0.483
190 246 1 120 1 1 3 34 3 0 0.606
191 246 1 121 2 1 1 32 3 0 0.52
192 246 1 122 0 1 0 33 3 3 1.109
193 246 1 123 0 1 3 35 3 3 0.508
194 246 1 124 3 1 3 32 3 3 0.426
195 246 1 125 2 1 1 37 3 1 0.606
196 246 1 126 0 0 2 37 3 1 0.537
197 246 1 127 0 1 1 49 3 0 0.581
198 246 2 128 2 0 3 32 3 0 2.526
199 246 2 129 2 0 1 32 3 2 0.844
200 246 2 130 1 0 3 35 3 0 0.563
201 246 2 131 3 0 0 39 3 3 0.647
202 246 2 132 0 0 1 34 3 1 0.661
203 246 2 133 0 0 3 34 3 0 0.573
204 246 2 134 2 0 0 31 3 2 0.637
205 246 2 135 1 0 2 33 3 1 0.642
206 246 2 136 2 0 3 31 3 3 0.632
207 246 2 137 2 1 2 31 3 0 0.809
208 246 2 138 3 1 0 33 3 3 0.436
209 246 2 139 3 1 2 34 3 3 0.375
210 246 2 140 2 1 1 31 3 2 0.613
211 246 2 141 3 1 1 42 3 3 0.507
212 246 2 142 2 1 2 32 3 2 0.733
213 246 2 143 2 0 3 35 3 3 0.576
214 246 2 144 1 1 1 32 3 1 0.602
215 246 2 145 1 0 0 34 3 1 0.577
216 246 2 146 3 1 0 31 3 0 1.304
217 246 2 147 3 0 0 34 3 3 0.554
218 246 2 148 0 1 1 34 3 3 0.73
219 246 2 149 0 1 3 31 3 3 0.591
220 246 2 150 3 1 1 31 3 3 0.638
221 246 2 151 1 0 2 33 3 1 1.132
222 246 2 152 1 0 1 34 3 1 1.009
223 246 2 153 2 0 2 35 3 2 0.977
224 246 2 154 1 1 2 31 3 0 0.842
225 246 2 155 0 0 1 37 3 0 0.628
226 246 2 156 1 0 0 31 3 1 0.875
227 246 2 157 3 1 1 32 3 3 0.671
228 246 2 158 1 0 1 31 3 1 0.716
229 246 2 159 2 0 0 35 3 2 0.743
230 246 2 160 1 1 2 35 3 1 0.704
231 246 2 161 2 1 2 34 3 1 0.483
232 246 2 162 1 1 3 31 3 0 0.633
233 246 2 163 3 1 0 33 3 3 0.506
234 246 2 164 3 0 2 31 3 3 0.484
235 246 2 165 3 1 0 34 3 3 0.391
236 246 2 166 1 1 2 31 3 1 0.725
237 246 2 167 2 1 1 31 3 1 0.735
238 246 2 168 1 1 0 34 3 1 0.515
239 246 2 169 3 1 0 33 3 3 0.445
240 246 2 170 3 1 3 31 3 3 0.377
241 246 2 171 1 1 3 37 3 3 0.367
242 246 2 172 2 1 0 34 3 1 0.754
243 246 2 173 0 0 0 35 3 1 0.495
244 246 2 174 2 0 0 31 3 2 0.437
245 246 2 175 3 1 1 31 3 2 0.825
246 246 2 176 2 1 3 33 3 2 0.787
247 246 2 177 0 1 1 34 3 0 0.531
248 246 2 178 0 1 0 34 3 1 0.676
249 246 2 179 0 1 0 32 3 1 0.363
250 246 2 180 3 1 0 31 3 3 0.701
251 246 2 181 1 0 2 31 3 3 0.609
252 246 2 182 1 1 3 31 3 1 0.787
253 246 2 183 2 1 0 35 3 1 0.618
254 246 2 184 1 1 3 31 3 3 1.244
255 246 2 185 0 1 3 31 3 3 0.615
256 246 2 186 1 0 0 31 3 1 0.641
257 246 2 187 3 1 3 39 3 3 0.51
258 246 2 188 0 1 0 32 3 0 0.608
259 246 2 189 2 1 2 35 3 1 0.893
260 246 2 190 1 1 0 33 3 1 0.573
261 246 2 191 2 0 2 39 3 3 0.685
262 246 3 192 0 0 2 32 3 2 0.947
263 246 3 193 0 0 1 35 3 1 0.466
264 246 3 194 1 1 2 34 3 1 0.497
265 246 3 195 1 1 0 32 3 1 0.419
266 246 3 196 2 0 0 31 3 2 0.783
267 246 3 197 3 0 1 41 3 3 0.672
268 246 3 198 3 1 3 33 3 3 0.756
269 246 3 199 3 0 3 32 3 3 0.493
270 246 3 200 3 1 0 31 3 3 0.495
271 246 3 201 3 0 1 31 3 3 0.456
272 246 3 202 3 0 1 31 3 3 0.468
273 246 3 203 2 0 2 32 3 2 0.968
274 246 3 204 1 1 0 31 3 1 0.513
275 246 3 205 1 1 3 35 3 3 1.01
276 246 3 206 3 1 1 32 3 3 0.614
277 246 3 207 3 0 0 33 3 3 0.557
278 246 3 208 3 1 1 40 3 3 0.54
279 246 3 209 3 1 1 31 3 3 0.429
280 246 3 210 3 0 0 32 3 3 0.482
281 246 3 211 3 0 0 34 3 3 0.39
282 246 3 212 0 0 1 38 3 1 0.668
283 246 3 213 1 1 1 35 3 1 0.516
284 246 3 214 2 0 0 31 3 3 0.599
285 246 3 215 2 1 3 35 3 2 1.081
286 246 3 216 1 1 0 31 3 1 0.582
287 246 3 217 0 1 3 35 3 0 0.485
288 246 3 218 2 1 0 31 3 2 0.735
289 246 3 219 0 1 0 32 3 1 0.665
290 246 3 220 0 1 1 32 3 0 0.624
291 246 3 221 3 1 2 32 3 3 0.518
292 246 3 222 1 0 1 33 3 1 0.552
293 246 3 223 0 1 2 34 3 3 1.112
294 246 3 224 2 0 1 35 3 1 0.625
295 246 3 225 1 1 1 34 3 1 0.602
296 246 3 226 2 0 3 32 3 2 1.321
297 246 3 227 1 0 2 32 3 2 0.758
298 246 3 228 3 1 3 32 3 3 0.522
299 246 3 229 3 0 2 31 3 3 0.764
300 246 3 230 1 1 1 32 3 1 0.597
301 246 3 231 3 0 0 31 3 3 0.484
302 246 3 232 3 0 3 33 3 3 0.536
303 246 3 233 2 1 0 31 3 1 0.593
304 246 3 234 2 0 0 39 3 2 0.796
305 246 3 235 1 0 0 32 3 1 0.556
306 246 3 236 0 0 1 31 3 1 0.875
307 246 3 237 3 0 2 32 3 3 0.476
308 246 3 238 3 1 0 32 3 3 0.398
309 246 3 239 1 0 3 33 3 2 0.861
310 246 3 240 2 1 3 32 3 3 0.55
311 246 3 241 2 0 2 33 3 3 0.619
312 246 3 242 0 0 1 34 3 0 0.46
313 246 3 243 0 1 2 31 3 1 0.616
314 246 3 244 3 1 2 33 3 3 0.737
315 246 3 245 2 1 1 33 3 2 0.93
316 246 3 246 1 0 1 31 3 1 0.654
317 246 3 247 3 0 1 34 3 3 0.651
318 246 3 248 3 0 3 33 3 3 0.648
319 246 3 249 3 0 1 32 3 3 0.534
320 246 3 250 2 1 0 40 3 3 0.699
321 246 3 251 1 0 2 31 3 1 0.555
322 246 3 252 3 0 2 38 3 2 0.916
323 246 3 253 2 1 0 31 3 3 0.618
324 246 3 254 3 0 3 33 3 2 0.884
325 246 3 255 0 0 2 31 3 2 0.637
326 246 4 256 2 1 2 32 3 2 0.699
327 246 4 257 0 1 3 33 3 1 0.63
328 246 4 258 3 0 1 36 3 3 0.824
329 246 4 259 0 0 1 31 3 0 0.703
330 246 4 260 2 1 0 31 3 1 0.529
331 246 4 261 0 1 1 32 3 1 0.35
332 246 4 262 0 1 0 38 3 0 0.769
333 246 4 263 0 0 2 31 3 2 0.874
334 246 4 264 0 0 0 32 3 1 0.683
335 246 4 265 3 0 3 34 3 2 0.643
336 246 4 266 3 0 3 31 3 3 0.599
337 246 4 267 0 0 3 31 3 2 0.703
338 246 4 268 3 0 0 32 3 3 0.558
339 246 4 269 3 1 2 35 3 3 0.47
340 246 4 270 3 0 3 34 3 2 0.777
341 246 4 271 1 0 2 34 3 1 0.566
342 246 4 272 1 0 0 36 3 1 0.91
343 246 4 273 3 1 2 33 3 1 0.762
344 246 4 274 3 1 3 33 3 3 0.606
345 246 4 275 0 0 0 32 3 2 0.917
346 246 4 276 0 1 1 31 3 0 0.556
347 246 4 277 0 1 3 31 3 0 0.467
348 246 4 278 1 0 3 31 3 2 0.864
349 246 4 279 3 1 2 34 3 1 0.632
350 246 4 280 0 1 3 32 3 0 0.649
351 246 4 281 3 1 0 33 3 3 0.606
352 246 4 282 1 1 3 31 3 2 1.028
353 246 4 283 2 1 2 35 3 1 0.527
354 246 4 284 0 0 2 39 3 3 0.856
355 246 4 285 3 0 2 34 3 3 0.53
356 246 4 286 1 0 1 32 3 1 0.747
357 246 4 287 3 0 3 31 3 3 0.638
358 246 4 288 2 0 3 31 3 2 0.803
359 246 4 289 3 1 2 36 3 2 1.778
360 246 4 290 0 0 0 34 3 3 0.547
361 246 4 291 2 0 3 37 3 2 0.624
362 246 4 292 0 1 1 35 3 0 0.365
363 246 4 293 3 1 1 33 3 3 0.676
364 246 4 294 0 0 2 32 3 2 0.656
365 246 4 295 2 1 1 34 3 2 0.72
366 246 4 296 1 0 0 35 3 1 0.89
367 246 4 297 0 1 2 34 3 0 0.71
368 246 4 298 2 0 2 39 3 2 0.673
369 246 4 299 3 0 2 31 3 2 0.614
370 246 4 300 2 1 3 31 3 2 0.839
371 246 4 301 2 1 1 32 3 0 0.597
372 246 4 302 2 1 1 34 3 1 0.559
373 246 4 303 3 1 3 34 3 3 0.546
374 246 4 304 3 1 1 31 3 3 0.451
375 246 4 305 1 0 0 34 3 2 0.776
376 246 4 306 3 1 3 33 3 3 0.515
377 246 4 307 1 0 0 31 3 1 0.654
378 246 4 308 1 1 2 31 3 2 0.762
379 246 4 309 1 1 3 32 3 3 0.598
380 246 4 310 2 0 3 31 3 0 0.689
381 246 4 311 1 0 3 32 3 3 0.329
382 246 4 312 3 0 1 33 3 1 0.549
383 246 4 313 0 1 2 32 3 2 0.329
384 246 4 314 1 1 2 31 3 3 0.349
385 246 4 315 1 0 3 35 3 3 0.657
386 246 4 316 2 1 0 35 3 2 0.713
387 246 4 317 1 0 1 31 3 1 0.524
388 246 4 318 0 0 0 31 3 1 0.494
389 246 4 319 3 0 1 32 3 3 0.715
390 248 0 0 2 1 1 35 3 1 1.236
391 248 0 1 1 1 2 35 3 2 1.247
392 248 0 2 2 0 0 33 3 1 0.643
393 248 0 3 2 0 3 33 3 3 1.132
394 248 0 4 0 1 1 33 3 1 0.699
395 248 0 5 0 0 0 31 3 0 0.883
396 248 0 6 1 0 0 31 3 1 0.925
397 248 0 7 2 0 1 32 3 1 0.744
398 248 0 8 2 1 3 34 3 3 0.581
399 248 0 9 1 0 2 31 3 2 1.488
400 248 0 10 3 1 1 33 3 1 0.802
401 248 0 11 0 0 1 33 3 0 0.726
402 248 0 12 3 1 2 32 3 3 1.423
403 248 0 13 0 1 2 34 3 1 0.88
404 248 0 14 2 0 1 32 3 1 0.657
405 248 0 15 2 1 1 31 3 0 1.217
406 248 0 16 3 1 1 31 3 3 1.325
407 248 0 17 1 0 1 32 3 0 0.858
408 248 0 18 1 0 1 32 3 1 1.244
409 248 0 19 1 1 2 31 3 3 1.283
410 248 0 20 1 1 3 35 3 1 1.196
411 248 0 21 2 1 1 31 3 2 1.141
412 248 0 22 0 0 0 31 3 0 0.905
413 248 0 23 3 0 0 31 3 3 1.141
414 248 0 24 0 0 3 37 3 3 0.713
415 248 0 25 3 1 1 32 3 0 0.599
416 248 0 26 3 0 1 31 3 1 0.742
417 248 0 27 2 0 0 37 3 3 1.084
418 248 0 28 0 1 2 31 3 0 0.588
419 248 0 29 1 0 3 34 3 2 0.851
420 248 0 30 1 0 1 31 3 0 0.837
421 248 0 31 0 0 0 37 3 3 0.407
422 248 0 32 3 1 1 33 3 2 0.352
423 248 0 33 0 0 2 32 3 0 0.708
424 248 0 34 2 0 0 33 3 0 0.807
425 248 0 35 2 1 0 31 3 2 0.178
426 248 0 36 2 1 0 31 3 3 0.063
427 248 0 37 1 1 1 31 3 0 0.516
428 248 0 38 2 0 2 31 3 0 0.722
429 248 0 39 1 1 1 38 3 1 0.448
430 248 0 40 1 1 1 33 3 1 0.035
431 248 0 41 0 1 3 45 3 2 0.71
432 248 0 42 3 0 1 31 3 0 0.189
433 248 0 43 1 1 2 31 3 3 0.574
434 248 0 44 3 1 2 31 3 0 0.976
435 248 0 45 2 0 3 31 3 1 0.686
436 248 0 46 1 1 0 34 3 2 0.525
437 248 0 47 1 0 1 32 3 2 0.762
438 248 0 48 3 0 0 32 3 0 0.335
439 248 0 49 0 0 1 31 3 3 0.276
440 248 0 50 1 0 0 31 3 2 0.506
441 248 0 51 2 0 3 33 3 1 0.52
442 248 0 52 3 1 2 31 3 1 0.557
443 248 0 53 3 0 1 32 3 0 0.905
444 248 0 54 1 0 1 32 3 2 0.889
445 248 0 55 1 0 2 31 3 2 0.905
446 248 0 56 2 0 1 34 3 0 1.881
447 248 0 57 0 1 0 34 3 3 0.124
448 248 0 58 3 0 2 31 3 3 1.192
449 248 0 59 3 0 0 32 3 0 1.066
450 248 0 60 1 1 3 32 3 2 0.412
451 248 0 61 0 1 3 32 3 3 0.516
452 248 0 62 2 1 2 32 3 3 1.161
453 248 0 63 2 0 1 34 3 0 0.8
454 248 1 64 1 1 0 31 3 0 0.384
455 248 1 65 3 0 1 43 3 2 0.499
456 248 1 66 0 1 1 31 3 1 0.457
457 248 1 67 1 0 3 31 3 1 1.001
458 248 1 68 3 0 2 31 3 3 0.801
459 248 1 69 3 0 3 31 3 3 0.529
460 248 1 70 2 0 1 35 3 1 0.715
461 248 1 71 2 1 1 32 3 1 0.665
462 248 1 72 3 1 0 33 3 1 0.968
463 248 1 73 2 1 3 33 3 3 0.796
464 248 1 74 0 0 1 33 3 0 0.961
465 248 1 75 3 0 3 35 3 3 0.587
466 248 1 76 0 1 1 31 3 3 0.585
467 248 1 77 0 0 1 36 3 0 0.949
468 248 1 78 2 1 3 34 3 3 0.743
469 248 1 79 0 0 3 36 3 2 0.652
470 248 1 80 1 0 3 33 3 3 0.645
471 248 1 81 1 1 1 31 3 -1 4.053
472 248 1 82 1 0 0 32 3 0 1.855
473 248 1 83 3 1 3 31 3 1 0.964
474 248 1 84 1 1 0 32 3 2 0.713
475 248 1 85 0 0 3 34 3 3 0.528
476 248 1 86 0 1 3 31 3 1 0.74
477 248 1 87 0 1 1 32 3 1 0.609
478 248 1 88 3 0 3 31 3 1 0.54
479 248 1 89 0 1 0 31 3 0 0.432
480 248 1 90 2 1 2 32 3 2 0.5
481 248 1 91 1 1 2 32 3 1 0.695
482 248 1 92 0 1 0 31 3 1 0.609
483 248 1 93 0 0 2 32 3 2 0.764
484 248 1 94 1 1 3 31 3 0 0.552
485 248 1 95 2 0 3 33 3 1 0.869
486 248 1 96 0 1 1 34 3 0 0.861
487 248 1 97 3 0 3 35 3 2 0.923
488 248 1 98 3 0 3 31 3 3 0.458
489 248 1 99 2 1 1 32 3 0 0.526
490 248 1 100 2 1 2 31 3 1 0.866
491 248 1 101 3 1 1 34 3 0 1.691
492 248 1 102 2 0 2 32 3 2 0.335
493 248 1 103 0 1 0 32 3 0 0.423
494 248 1 104 3 1 1 31 3 3 0.507
495 248 1 105 0 0 1 32 3 0 0.518
496 248 1 106 3 1 0 31 3 2 0.759
497 248 1 107 3 1 0 31 3 0 0.243
498 248 1 108 1 1 0 34 3 1 0.674
499 248 1 109 2 0 3 31 3 2 0.705
500 248 1 110 2 0 0 32 3 1 0.724
501 248 1 111 2 0 2 32 3 3 0.906
502 248 1 112 3 1 2 31 3 2 0.849
503 248 1 113 0 1 0 33 3 0 0.746
504 248 1 114 3 0 1 33 3 0 0.764
505 248 1 115 2 0 0 31 3 3 0.801
506 248 1 116 3 1 2 31 3 3 0.523
507 248 1 117 2 0 3 34 3 2 0.693
508 248 1 118 2 1 1 31 3 1 0.768
509 248 1 119 2 0 0 31 3 0 0.549
510 248 1 120 3 1 0 32 3 2 0.246
511 248 1 121 1 0 3 31 3 2 0.782
512 248 1 122 2 1 0 31 3 3 0.314
513 248 1 123 2 0 0 33 3 0 0.351
514 248 1 124 2 1 0 32 3 1 0.426
515 248 1 125 1 1 3 37 3 2 0.338
516 248 1 126 0 1 1 31 3 0 0.621
517 248 1 127 1 0 0 34 3 1 0.691
518 248 2 128 2 0 1 31 3 1 0.235
519 248 2 129 3 0 0 31 3 3 1.155
520 248 2 130 1 1 1 32 3 1 0.574
521 248 2 131 1 1 2 31 3 1 0.525
522 248 2 132 3 0 0 40 3 3 0.743
523 248 2 133 3 1 3 31 3 3 0.64
524 248 2 134 0 0 3 31 3 2 0.966
525 248 2 135 1 1 3 31 3 3 0.811
526 248 2 136 3 1 1 32 3 1 0.741
527 248 2 137 3 1 0 31 3 0 0.85
528 248 2 138 1 1 0 32 3 1 0.443
529 248 2 139 1 1 3 33 3 2 0.975
530 248 2 140 1 1 0 32 3 2 0.676
531 248 2 141 0 0 2 35 3 3 0.748
532 248 2 142 2 1 3 31 3 1 0.568
533 248 2 143 2 0 2 31 3 2 0.694
534 248 2 144 0 1 1 34 3 2 0.417
535 248 2 145 3 0 3 35 3 3 0.611
536 248 2 146 3 0 1 33 3 3 0.681
537 248 2 147 0 1 0 32 3 1 0.405
538 248 2 148 3 0 3 33 3 3 0.759
539 248 2 149 1 1 2 34 3 1 0.447
540 248 2 150 2 1 3 32 3 1 0.451
541 248 2 151 2 1 2 36 3 1 0.459
542 248 2 152 3 1 3 31 3 3 0.706
543 248 2 153 3 1 3 34 3 3 0.38
544 248 2 154 0 1 3 33 3 0 0.546
545 248 2 155 0 0 3 31 3 3 0.939
546 248 2 156 0 1 3 31 3 0 0.545
547 248 2 157 1 0 0 31 3 1 0.89
548 248 2 158 2 1 1 32 3 1 0.622
549 248 2 159 2 0 0 32 3 0 0.824
550 248 2 160 0 0 1 32 3 0 0.827
551 248 2 161 3 0 0 37 3 3 0.794
552 248 2 162 1 0 3 31 3 0 0.634
553 248 2 163 2 0 1 36 3 1 0.596
554 248 2 164 2 1 0 31 3 1 0.625
555 248 2 165 0 1 2 33 3 1 0.514
556 248 2 166 0 1 2 33 3 0 0.423
557 248 2 167 3 1 1 32 3 3 0.507
558 248 2 168 1 0 1 33 3 0 0.805
559 248 2 169 0 1 3 31 3 0 0.656
560 248 2 170 0 0 0 35 3 3 0.709
561 248 2 171 0 1 2 33 3 1 0.595
562 248 2 172 3 0 0 33 3 3 0.75
563 248 2 173 0 1 2 31 3 1 0.486
564 248 2 174 1 0 0 38 3 0 0.837
565 248 2 175 0 1 0 31 3 1 0.43
566 248 2 176 3 1 0 32 3 2 0.23
567 248 2 177 1 0 3 33 3 1 0.639
568 248 2 178 1 0 0 31 3 1 0.628
569 248 2 179 2 0 2 31 3 1 0.795
570 248 2 180 3 0 3 31 3 3 0.654
571 248 2 181 2 1 1 31 3 1 0.475
572 248 2 182 0 1 1 32 3 1 0.353
573 248 2 183 2 1 1 35 3 2 1.388
574 248 2 184 2 1 0 32 3 1 4.414
575 248 2 185 2 0 1 31 3 1 0.432
576 248 2 186 3 0 2 33 3 3 0.561
577 248 2 187 0 0 3 34 3 0 0.313
578 248 2 188 3 1 2 33 3 3 0.498
579 248 2 189 1 0 3 32 3 1 0.797
580 248 2 190 2 0 2 31 3 1 0.558
581 248 2 191 3 1 3 33 3 3 0.561
582 248 3 192 3 1 3 36 3 1 0.596
583 248 3 193 0 1 2 31 3 1 0.47
584 248 3 194 2 0 1 33 3 3 0.709
585 248 3 195 2 1 3 32 3 2 0.499
586 248 3 196 0 0 2 31 3 1 0.622
587 248 3 197 0 1 0 31 3 2 0.431
588 248 3 198 0 1 2 32 3 1 0.615
589 248 3 199 2 0 1 34 3 1 0.546
590 248 3 200 1 0 3 32 3 3 0.286
591 248 3 201 3 0 0 33 3 3 0.884
592 248 3 202 2 1 0 31 3 1 0.456
593 248 3 203 3 1 0 31 3 0 0.303
594 248 3 204 0 0 1 32 3 0 0.436
595 248 3 205 2 1 0 39 3 0 0.664
596 248 3 206 1 1 0 33 3 2 0.424
597 248 3 207 0 0 0 31 3 1 0.921
598 248 3 208 0 0 3 32 3 1 0.52
599 248 3 209 3 1 2 31 3 3 0.749
600 248 3 210 1 0 2 34 3 1 0.607
601 248 3 211 0 1 2 34 3 3 0.605
602 248 3 212 2 1 3 32 3 0 0.11
603 248 3 213 1 0 0 32 3 1 0.298
604 248 3 214 0 1 1 38 3 1 0.42
605 248 3 215 3 0 2 31 3 2 0.501
606 248 3 216 3 0 0 32 3 3 0.291
607 248 3 217 1 0 1 32 3 3 0.486
608 248 3 218 1 1 0 38 3 3 0.364
609 248 3 219 1 0 3 33 3 0 1.823
610 248 3 220 3 0 1 32 3 0 1.406
611 248 3 221 0 0 0 31 3 1 0.204
612 248 3 222 3 1 0 32 3 3 0.109
613 248 3 223 1 1 3 31 3 2 0.3
614 248 3 224 1 1 2 32 3 1 0.377
615 248 3 225 2 0 3 32 3 3 0.729
616 248 3 226 0 1 3 33 3 0 0.518
617 248 3 227 3 0 3 31 3 3 0.56
618 248 3 228 0 0 1 31 3 0 0.649
619 248 3 229 2 1 2 32 3 2 0.549
620 248 3 230 2 1 2 31 3 2 0.342
621 248 3 231 3 0 2 35 3 3 0.79
622 248 3 232 3 1 1 32 3 2 0.75
623 248 3 233 1 1 2 36 3 2 0.618
624 248 3 234 3 0 3 38 3 3 0.709
625 248 3 235 3 1 3 32 3 3 0.591
626 248 3 236 1 1 1 34 3 1 0.382
627 248 3 237 3 0 2 31 3 3 0.637
628 248 3 238 1 0 0 33 3 3 0.995
629 248 3 239 2 1 1 32 3 2 0.567
630 248 3 240 2 1 3 33 3 2 0.615
631 248 3 241 0 1 3 32 3 1 0.613
632 248 3 242 0 0 2 33 3 3 0.703
633 248 3 243 3 0 1 32 3 0 0.454
634 248 3 244 2 0 0 32 3 1 0.278
635 248 3 245 0 0 3 32 3 3 0.426
636 248 3 246 2 1 2 32 3 2 0.514
637 248 3 247 3 0 0 31 3 2 0.252
638 248 3 248 1 1 2 33 3 1 0.698
639 248 3 249 2 0 3 32 3 3 0.622
640 248 3 250 1 1 0 32 3 0 0.095
641 248 3 251 1 1 1 31 3 0 0.355
642 248 3 252 2 0 2 32 3 2 0.359
643 248 3 253 1 1 1 32 3 2 0.334
644 248 3 254 1 0 1 31 3 3 0.115
645 248 3 255 1 1 3 31 3 0 0.966
646 248 4 256 1 0 1 33 3 3 0.15
647 248 4 257 1 0 0 38 3 0 0.625
648 248 4 258 0 1 2 31 3 1 0.002
649 248 4 259 0 1 0 39 3 2 0.505
650 248 4 260 0 1 1 34 3 0 0.366
651 248 4 261 3 0 1 32 3 3 0.174
652 248 4 262 1 0 2 31 3 2 0.132
653 248 4 263 1 0 2 33 3 1 0.544
654 248 4 264 1 0 2 32 3 3 0.745
655 248 4 265 3 1 3 31 3 0 0.678
656 248 4 266 1 1 1 37 3 1 0.277
657 248 4 267 2 0 3 32 3 2 0.728
658 248 4 268 0 0 0 34 3 1 0.506
659 248 4 269 1 0 2 38 3 2 0.104
660 248 4 270 1 0 1 33 3 0 0.005
661 248 4 271 3 0 2 35 3 0 0.213
662 248 4 272 0 0 2 32 3 0 0.573
663 248 4 273 2 0 0 34 3 1 0.469
664 248 4 274 0 1 3 36 3 2 0.716
665 248 4 275 3 0 2 33 3 0 0.099
666 248 4 276 0 1 3 34 3 3 0.806
667 248 4 277 0 0 1 33 3 1 0.217
668 248 4 278 0 1 0 31 3 1 0.361
669 248 4 279 3 1 0 32 3 3 0.58
670 248 4 280 3 0 1 32 3 1 0.652
671 248 4 281 2 0 2 32 3 2 0.229
672 248 4 282 0 0 2 31 3 2 0.458
673 248 4 283 2 1 3 31 3 1 0.544
674 248 4 284 0 0 2 33 3 2 0.813
675 248 4 285 1 0 2 31 3 1 0.801
676 248 4 286 1 0 3 31 3 1 0.464
677 248 4 287 2 0 2 31 3 1 0.477
678 248 4 288 1 1 1 32 3 1 0.355
679 248 4 289 3 1 1 31 3 3 0.794
680 248 4 290 0 0 3 35 3 2 1.018
681 248 4 291 1 1 3 31 3 1 0.493
682 248 4 292 3 0 2 32 3 1 0.568
683 248 4 293 2 0 2 35 3 1 0.388
684 248 4 294 0 0 2 41 3 2 0.502
685 248 4 295 0 0 0 31 3 1 0.484
686 248 4 296 3 1 2 37 3 1 0.763
687 248 4 297 2 1 0 31 3 1 0.567
688 248 4 298 3 1 3 31 3 2 0.714
689 248 4 299 3 1 2 32 3 2 0.088
690 248 4 300 0 0 0 32 3 1 0.261
691 248 4 301 1 1 0 32 3 0 0.436
692 248 4 302 2 1 2 38 3 1 1.212
693 248 4 303 3 1 0 32 3 2 0.536
694 248 4 304 3 1 2 31 3 1 0.476
695 248 4 305 3 1 3 31 3 2 1.026
696 248 4 306 0 0 0 31 3 3 0.846
697 248 4 307 0 0 2 33 3 1 0.688
698 248 4 308 1 1 3 32 3 2 0.623
699 248 4 309 2 1 2 32 3 0 0.032
700 248 4 310 0 0 1 32 3 0 0.719
701 248 4 311 2 1 0 33 3 0 0.297
702 248 4 312 1 1 2 33 3 1 0.821
703 248 4 313 2 1 3 34 3 1 0.46
704 248 4 314 0 0 3 31 3 1 0.636
705 248 4 315 1 0 2 31 3 2 0.325
706 248 4 316 1 0 2 31 3 3 0.169
707 248 4 317 2 1 2 31 3 0 0.042
708 248 4 318 2 0 3 31 3 1 0.185
709 248 4 319 3 0 2 32 3 3 0.307
710 250 0 0 3 0 0 31 3 3 1.046
711 250 0 1 3 0 2 35 3 3 0.604
712 250 0 2 3 0 2 37 3 3 0.458
713 250 0 3 2 0 0 32 3 2 0.846
714 250 0 4 1 1 1 31 3 2 0.619
715 250 0 5 0 1 2 31 3 0 0.539
716 250 0 6 2 0 2 33 3 2 0.532
717 250 0 7 3 0 0 31 3 3 0.525
718 250 0 8 2 1 0 31 3 2 0.717
719 250 0 9 0 1 3 31 3 2 0.622
720 250 0 10 2 1 3 34 3 2 0.591
721 250 0 11 1 1 0 35 3 1 0.453
722 250 0 12 1 1 0 31 3 1 0.359
723 250 0 13 1 1 3 32 3 1 0.406
724 250 0 14 3 0 3 33 3 3 0.659
725 250 0 15 3 1 0 37 3 3 0.439
726 250 0 16 0 0 0 31 3 0 0.555
727 250 0 17 0 1 0 32 3 0 0.506
728 250 0 18 0 1 1 32 3 0 0.571
729 250 0 19 3 0 0 32 3 2 0.619
730 250 0 20 2 0 0 32 3 2 0.661
731 250 0 21 2 1 1 33 3 2 0.456
732 250 0 22 2 1 0 33 3 2 0.483
733 250 0 23 2 0 1 31 3 2 0.558
734 250 0 24 0 0 2 32 3 0 0.59
735 250 0 25 2 1 2 40 3 2 0.436
736 250 0 26 2 1 2 36 3 2 0.456
737 250 0 27 2 0 1 37 3 2 0.5
738 250 0 28 1 0 1 43 3 1 0.534
739 250 0 29 2 0 3 34 3 0 0.559
740 250 0 30 1 1 2 31 3 2 1.242
741 250 0 31 0 1 1 32 3 2 0.476
742 250 0 32 1 1 3 31 3 1 0.458
743 250 0 33 0 0 0 32 3 0 0.461
744 250 0 34 0 0 3 32 3 3 0.705
745 250 0 35 3 0 3 36 3 2 0.463
746 250 0 36 0 0 3 31 3 0 0.495
747 250 0 37 3 1 2 35 3 3 0.488
748 250 0 38 3 0 1 31 3 3 0.515
749 250 0 39 1 1 0 36 3 1 0.62
750 250 0 40 2 0 2 34 3 3 0.562
751 250 0 41 1 1 1 31 3 1 0.548
752 250 0 42 2 1 2 33 3 2 0.532
753 250 0 43 0 1 0 31 3 1 0.581
754 250 0 44 0 1 0 31 3 0 0.359
755 250 0 45 1 0 1 32 3 1 0.518
756 250 0 46 0 1 3 36 3 0 0.407
757 250 0 47 0 1 2 38 3 0 0.364
758 250 0 48 0 1 1 33 3 0 0.346
759 250 0 49 0 0 3 31 3 3 0.57
760 250 0 50 3 1 0 32 3 3 0.564
761 250 0 51 2 0 2 31 3 0 0.668
762 250 0 52 3 0 3 31 3 3 0.572
763 250 0 53 2 0 3 34 3 3 0.619
764 250 0 54 3 0 2 32 3 3 0.605
765 250 0 55 0 1 3 34 3 0 0.57
766 250 0 56 0 0 2 34 3 0 0.506
767 250 0 57 2 1 1 32 3 2 0.499
768 250 0 58 1 1 2 34 3 1 0.46
769 250 0 59 1 0 3 31 3 1 0.488
770 250 0 60 0 0 0 34 3 0 0.474
771 250 0 61 3 0 1 32 3 3 0.573
772 250 0 62 0 1 3 31 3 0 0.388
773 250 0 63 3 1 1 36 3 3 0.729
774 250 1 64 0 1 1 33 3 1 0.622
775 250 1 65 0 1 1 34 3 0 0.462
776 250 1 66 0 0 0 34 3 0 0.506
777 250 1 67 2 0 2 35 3 2 0.892
778 251 0 0 1 1 1 34 3 2 0.697
779 251 0 1 3 0 1 31 3 3 0.817
780 251 0 2 3 0 0 32 3 3 0.737
781 251 0 3 1 1 0 39 3 2 0.731
782 251 0 4 1 1 0 32 3 2 0.921
783 251 0 5 1 0 3 31 3 2 0.841
784 251 0 6 3 0 2 33 3 3 0.796
785 251 0 7 2 0 1 31 3 2 0.797
786 251 0 8 0 1 2 39 3 1 2.677
787 251 0 9 2 0 3 32 3 2 0.661
788 251 0 10 1 0 0 44 3 3 0.714
789 251 0 11 3 1 1 31 3 1 2.969
790 251 0 12 2 0 1 31 3 2 0.928
791 251 0 13 0 0 2 31 3 2 0.812
792 251 0 14 3 0 3 32 3 3 0.784
793 251 0 15 2 0 2 32 3 2 1.761
794 251 0 16 0 1 3 36 3 1 0.807
795 251 0 17 0 0 2 32 3 2 0.811
796 251 0 18 0 1 1 33 3 2 1.158
797 251 0 19 3 1 0 33 3 3 1.141
798 251 0 20 2 0 2 31 3 2 0.761
799 251 0 21 1 0 1 31 3 2 0.699
800 251 0 22 1 0 1 32 3 2 0.611
801 251 0 23 3 1 1 35 3 1 1.189
802 251 0 24 2 1 2 35 3 1 0.947
803 251 0 25 2 0 3 31 3 2 1.074
804 251 0 26 0 1 2 34 3 0 3.104
805 251 0 27 0 0 1 31 3 2 0.862
806 251 0 28 1 0 2 34 3 2 0.704
807 251 0 29 1 0 0 35 3 1 0.92
808 251 0 30 2 1 1 31 3 1 1.243
809 251 0 31 3 1 0 32 3 3 1.255
810 251 0 32 2 1 3 31 3 3 0.99
811 251 0 33 0 1 3 31 3 1 0.899
812 251 0 34 0 1 0 36 3 2 1.834
813 251 0 35 1 1 1 31 3 1 1.696
814 251 0 36 0 0 0 36 3 2 0.945
815 251 0 37 3 1 1 32 3 0 2.183
816 251 0 38 0 0 0 31 3 2 0.73
817 251 0 39 3 1 2 31 3 0 1.848
818 251 0 40 2 1 2 33 3 2 5.486
819 251 0 41 3 0 1 32 3 3 0.742
820 251 0 42 3 1 3 32 3 3 0.912
821 251 0 43 0 1 3 32 3 0 0.9
822 251 0 44 2 1 0 31 3 0 1.016
823 251 0 45 3 1 0 32 3 3 0.732
824 251 0 46 2 1 1 32 3 0 0.806
825 251 0 47 0 0 0 37 3 2 0.906
826 251 0 48 2 1 2 32 3 3 0.914
827 251 0 49 0 0 2 38 3 0 0.69
828 251 0 50 1 1 2 31 3 1 0.894
829 251 0 51 3 0 2 31 3 3 0.699
830 251 0 52 2 0 2 32 3 2 0.703
831 251 0 53 3 1 3 36 3 1 0.794
832 251 0 54 2 1 0 31 3 2 0.71
833 251 0 55 3 1 3 32 3 3 1.057
834 251 0 56 3 0 3 34 3 3 0.553
835 251 0 57 3 0 1 31 3 3 0.754
836 251 0 58 3 0 2 31 3 3 0.436
837 251 0 59 1 1 0 33 3 1 0.777
838 251 0 60 0 1 3 33 3 3 0.817
839 251 0 61 1 1 2 31 3 1 1.388
840 251 0 62 3 0 0 35 3 3 0.727
841 251 0 63 0 1 0 31 3 0 0.786
842 251 1 64 2 0 3 32 3 2 0.703
843 251 1 65 1 0 0 32 3 1 0.739
844 251 1 66 3 1 1 31 3 1 0.573
845 251 1 67 1 0 3 32 3 2 0.809
846 251 1 68 1 0 0 32 3 1 0.669
847 251 1 69 1 0 2 32 3 2 1.17
848 251 1 70 2 1 3 33 3 1 0.656
849 251 1 71 0 0 2 32 3 2 0.858
850 251 1 72 2 1 2 35 3 1 0.851
851 251 1 73 0 1 0 31 3 1 0.988
852 251 1 74 1 1 3 33 3 0 0.929
853 251 1 75 2 0 1 40 3 2 1.328
854 251 1 76 1 0 3 31 3 2 0.734
855 251 1 77 2 0 2 33 3 2 0.741
856 251 1 78 2 1 0 33 3 0 1.086
857 251 1 79 0 1 3 32 3 1 0.703
858 251 1 80 3 0 0 33 3 3 0.743
859 251 1 81 2 1 1 34 3 2 0.833
860 251 1 82 3 1 3 32 3 1 0.871
861 251 1 83 0 0 3 33 3 2 0.697
862 251 1 84 3 0 2 31 3 3 0.689
863 251 1 85 0 0 1 31 3 2 0.79
864 251 1 86 3 0 0 35 3 3 0.618
865 251 1 87 1 1 3 32 3 1 0.617
866 251 1 88 2 1 1 32 3 1 0.871
867 251 1 89 0 1 1 31 3 2 0.96
868 251 1 90 0 1 0 32 3 3 0.71
869 251 1 91 0 0 3 33 3 2 0.749
870 251 1 92 1 1 0 32 3 1 0.683
871 251 1 93 0 0 3 31 3 3 0.592
872 251 1 94 3 0 1 34 3 3 0.635
873 251 1 95 1 1 3 31 3 1 0.617
874 251 1 96 3 0 1 31 3 3 0.576
875 251 1 97 2 1 1 31 3 2 0.864
876 251 1 98 0 0 3 34 3 0 0.959
877 251 1 99 2 1 0 33 3 1 0.737
878 251 1 100 1 1 1 33 3 1 0.574
879 251 1 101 1 0 2 33 3 2 0.631
880 251 1 102 1 0 2 35 3 1 1.313
881 251 1 103 0 0 3 33 3 1 1.216
882 251 1 104 3 1 1 33 3 3 1.324
883 251 1 105 1 0 2 35 3 1 0.714
884 251 1 106 0 0 2 31 3 1 0.814
885 251 1 107 2 1 1 31 3 0 0.745
886 251 1 108 0 0 2 33 3 2 0.639
887 251 1 109 3 1 2 42 3 1 0.656
888 251 1 110 1 0 1 31 3 1 0.761
889 251 1 111 0 0 3 31 3 1 0.875
890 251 1 112 0 0 1 34 3 2 0.749
891 251 1 113 2 1 0 33 3 3 0.89
892 251 1 114 0 1 1 32 3 0 0.338
893 251 1 115 0 0 1 33 3 0 0.723
894 251 1 116 0 1 0 31 3 1 0.397
895 251 1 117 0 1 2 31 3 1 0.999
896 251 1 118 2 0 2 33 3 2 0.501
897 251 1 119 2 0 0 31 3 2 0.592
898 251 1 120 1 1 2 31 3 2 0.815
899 251 1 121 2 0 3 32 3 3 0.883
900 251 1 122 3 0 3 38 3 3 0.725
901 251 1 123 2 0 0 35 3 2 0.856
902 251 1 124 2 1 0 33 3 0 0.702
903 251 1 125 3 0 3 32 3 3 0.597
904 251 1 126 1 1 1 31 3 1 0.821
905 251 1 127 3 1 3 31 3 3 0.796
906 251 2 128 3 0 3 33 3 3 0.556
907 251 2 129 3 1 3 39 3 2 0.62
908 251 2 130 2 0 0 33 3 3 0.615
909 251 2 131 1 1 2 31 3 2 0.985
910 251 2 132 2 1 1 32 3 1 0.573
911 251 2 133 3 1 0 32 3 1 0.913
912 251 2 134 3 1 3 33 3 3 0.648
913 251 2 135 0 1 2 32 3 2 0.55
914 251 2 136 2 1 3 36 3 2 1.354
915 251 2 137 2 1 2 31 3 2 0.494
916 251 2 138 0 0 1 31 3 3 0.843
917 251 2 139 0 0 3 38 3 3 1.07
918 251 2 140 2 1 0 33 3 2 0.896
919 251 2 141 1 1 0 32 3 1 1.012
920 251 2 142 3 1 0 33 3 3 0.628
921 251 2 143 2 0 3 43 3 2 0.907
922 251 2 144 2 0 3 33 3 2 0.792
923 251 2 145 2 1 3 31 3 2 0.816
924 251 2 146 2 1 3 34 3 2 0.648
925 251 2 147 3 0 1 31 3 3 0.862
926 251 2 148 2 1 1 31 3 2 0.739
927 251 2 149 0 1 2 31 3 2 0.797
928 251 2 150 0 0 0 32 3 1 1.042
929 251 2 151 0 1 3 34 3 2 0.949
930 251 2 152 3 1 2 32 3 3 0.699
931 251 2 153 1 1 0 42 3 2 0.822
932 251 2 154 0 0 1 33 3 3 0.778
933 251 2 155 1 1 0 31 3 1 0.806
934 251 2 156 3 0 1 32 3 3 0.742
935 251 2 157 2 0 2 35 3 2 1.017
936 251 2 158 0 1 1 31 3 2 0.745
937 251 2 159 2 1 3 32 3 2 0.934
938 251 2 160 3 1 3 33 3 3 0.793
939 251 2 161 0 0 1 34 3 3 0.778
940 251 2 162 2 0 1 37 3 2 0.607
941 251 2 163 1 0 1 32 3 2 0.774
942 251 2 164 3 0 2 31 3 3 0.7
943 251 2 165 0 1 1 31 3 2 0.759
944 251 2 166 3 0 2 31 3 3 0.717
945 251 2 167 0 1 3 33 3 2 0.567
946 251 2 168 2 1 3 36 3 2 1.243
947 251 2 169 3 0 1 39 3 3 1.913
948 251 2 170 2 0 3 34 3 3 0.593
949 251 2 171 3 1 0 33 3 1 0.644
950 251 2 172 3 0 3 32 3 3 0.67
951 251 2 173 1 0 3 31 3 2 0.723
952 251 2 174 3 1 1 34 3 1 0.689
953 251 2 175 0 0 3 32 3 2 0.953
954 251 2 176 3 1 1 31 3 1 1.551
955 251 2 177 0 0 0 32 3 3 2.552
956 251 2 178 1 1 3 33 3 2 0.564
957 251 2 179 1 0 3 31 3 1 0.897
958 251 2 180 3 1 3 34 3 2 0.79
959 251 2 181 1 0 0 31 3 3 1.114
960 251 2 182 2 1 2 31 3 2 0.779
961 251 2 183 2 1 3 31 3 2 0.755
962 251 2 184 3 0 0 34 3 3 0.757
963 251 2 185 2 1 0 34 3 2 0.751
964 251 2 186 2 1 2 32 3 1 0.616
965 251 2 187 1 0 3 37 3 2 0.788
966 251 2 188 3 1 1 38 3 2 3.183
967 251 2 189 3 0 0 31 3 3 0.814
968 251 2 190 1 0 1 34 3 2 0.638
969 251 2 191 2 0 0 31 3 1 0.888
970 251 3 192 0 1 1 37 3 1 0.53
971 251 3 193 1 1 3 32 3 1 0.664
972 251 3 194 2 0 2 32 3 2 0.717
973 251 3 195 1 1 2 31 3 1 0.504
974 251 3 196 2 0 1 31 3 2 0.723
975 251 3 197 1 0 1 32 3 1 0.566
976 251 3 198 3 1 0 31 3 1 0.39
977 251 3 199 3 1 0 32 3 3 0.576
978 251 3 200 0 0 3 32 3 2 0.553
979 251 3 201 2 0 0 31 3 2 1.03
980 251 3 202 2 0 0 31 3 3 0.831
981 251 3 203 1 1 1 32 3 1 0.745
982 251 3 204 1 1 2 31 3 1 0.803
983 251 3 205 1 1 2 33 3 1 0.506
984 251 3 206 0 1 0 31 3 1 0.78
985 251 3 207 2 0 3 35 3 2 0.914
986 251 3 208 0 0 0 31 3 1 0.862
987 251 3 209 1 1 0 31 3 1 0.664
988 251 3 210 1 1 1 31 3 1 0.564
989 251 3 211 1 0 0 33 3 1 0.718
990 251 3 212 1 1 1 31 3 1 0.552
991 251 3 213 3 0 0 33 3 3 0.641
992 251 3 214 1 1 3 37 3 2 0.703
993 251 3 215 0 1 1 38 3 0 0.925
994 251 3 216 1 0 0 31 3 1 0.57
995 251 3 217 2 0 1 37 3 2 0.818
996 251 3 218 1 1 3 31 3 1 0.729
997 251 3 219 1 1 2 31 3 1 0.627
998 251 3 220 3 0 1 35 3 3 0.666
999 251 3 221 1 0 1 33 3 1 0.735
1000 251 3 222 1 1 3 38 3 1 1.481
1001 251 3 223 1 0 1 32 3 1 1.057
1002 251 3 224 2 0 0 31 3 2 0.872
1003 251 3 225 2 0 1 31 3 2 0.662
1004 251 3 226 0 1 2 31 3 0 1.043
1005 251 3 227 2 0 1 32 3 2 1.211
1006 251 3 228 0 0 2 32 3 3 0.701
1007 251 3 229 2 1 1 31 3 2 0.94
1008 251 3 230 0 0 2 31 3 1 1.48
1009 251 3 231 1 1 2 33 3 0 0.795
1010 251 3 232 0 0 0 35 3 0 0.8
1011 251 3 233 2 1 0 31 3 1 1.118
1012 251 3 234 3 0 2 35 3 3 0.678
1013 251 3 235 1 0 2 33 3 2 0.683
1014 251 3 236 0 1 2 33 3 1 0.779
1015 251 3 237 0 1 0 31 3 0 0.551
1016 251 3 238 1 1 1 33 3 1 0.664
1017 251 3 239 3 1 2 31 3 3 0.58
1018 251 3 240 1 0 2 33 3 1 0.685
1019 251 3 241 0 1 3 31 3 1 0.649
1020 251 3 242 3 0 0 33 3 3 0.707
1021 251 3 243 1 0 2 31 3 1 0.549
1022 251 3 244 1 0 2 31 3 1 0.591
1023 251 3 245 3 1 1 31 3 3 0.718
1024 251 3 246 0 0 3 31 3 1 0.674
1025 251 3 247 2 0 1 31 3 1 0.714
1026 251 3 248 0 0 1 31 3 1 0.69
1027 251 3 249 3 0 0 31 3 3 0.858
1028 251 3 250 3 0 1 31 3 3 0.537
1029 251 3 251 2 1 2 32 3 1 0.65
1030 251 3 252 2 0 2 31 3 2 1.107
1031 251 3 253 3 1 2 32 3 3 0.704
1032 251 3 254 1 0 3 32 3 1 0.868
1033 251 3 255 1 0 0 34 3 1 0.818
1034 251 4 256 0 0 2 31 3 2 0.956
1035 251 4 257 3 1 1 32 3 3 0.546
1036 251 4 258 0 1 2 32 3 2 0.515
1037 251 4 259 0 1 2 36 3 0 0.553
1038 251 4 260 2 0 0 46 3 2 0.626
1039 251 4 261 1 0 0 34 3 2 0.665
1040 251 4 262 2 0 2 31 3 2 0.546
1041 251 4 263 3 1 0 34 3 3 0.771
1042 251 4 264 1 0 3 32 3 2 0.549
1043 251 4 265 0 1 3 36 3 0 0.969
1044 251 4 266 1 1 0 32 3 1 0.779
1045 251 4 267 3 1 2 38 3 2 1.027
1046 251 4 268 3 0 0 35 3 3 0.656
1047 251 4 269 0 0 1 33 3 1 0.629
1048 251 4 270 2 0 3 31 3 2 0.56
1049 251 4 271 0 1 2 32 3 1 0.879
1050 251 4 272 2 1 1 33 3 1 0.792
1051 251 4 273 1 0 1 34 3 2 0.653
1052 251 4 274 3 0 2 32 3 3 0.646
1053 251 4 275 3 1 2 32 3 1 0.579
1054 251 4 276 1 0 2 31 3 2 0.576
1055 251 4 277 2 0 1 31 3 1 0.748
1056 251 4 278 1 0 3 33 3 1 0.898
1057 251 4 279 1 1 1 31 3 1 0.823
1058 251 4 280 2 0 3 31 3 2 0.662
1059 251 4 281 1 1 0 35 3 1 0.659
1060 251 4 282 0 0 0 33 3 1 0.953
1061 251 4 283 2 1 2 38 3 1 0.687
1062 251 4 284 3 0 2 31 3 3 0.711
1063 251 4 285 1 1 3 33 3 1 0.738
1064 251 4 286 3 1 3 32 3 3 0.476
1065 251 4 287 0 1 0 33 3 0 0.623
1066 251 4 288 2 0 0 31 3 3 0.71
1067 251 4 289 0 1 1 33 3 1 0.548
1068 251 4 290 0 1 1 34 3 0 0.697
1069 251 4 291 2 1 3 32 3 2 0.708
1070 251 4 292 3 0 2 31 3 3 0.824
1071 251 4 293 0 1 0 32 3 0 0.527
1072 251 4 294 1 1 2 34 3 1 0.625
1073 251 4 295 0 1 1 34 3 1 0.638
1074 251 4 296 3 1 2 32 3 3 0.607
1075 251 4 297 0 0 0 34 3 0 1.271
1076 251 4 298 2 1 0 35 3 0 0.654
1077 251 4 299 3 1 2 33 3 3 0.557
1078 251 4 300 1 0 0 31 3 1 1.238
1079 251 4 301 0 1 3 31 3 0 0.814
1080 251 4 302 1 0 3 34 3 1 0.686
1081 251 4 303 1 0 1 31 3 2 0.899
1082 251 4 304 3 1 0 37 3 3 0.619
1083 251 4 305 2 1 3 32 3 1 0.649
1084 251 4 306 2 1 2 32 3 1 0.714
1085 251 4 307 2 0 0 32 3 1 0.69
1086 251 4 308 3 1 2 32 3 3 1.137
1087 251 4 309 3 0 3 32 3 3 0.566
1088 251 4 310 3 0 3 31 3 3 0.415
1089 251 4 311 3 0 3 40 3 3 0.365
1090 251 4 312 0 1 0 31 3 1 0.645
1091 251 4 313 1 1 1 31 3 1 0.678
1092 251 4 314 0 0 0 33 3 0 0.635
1093 251 4 315 1 1 3 31 3 1 0.649
1094 251 4 316 0 0 1 31 3 3 0.655
1095 251 4 317 3 0 3 31 3 3 0.503
1096 251 4 318 0 0 2 41 3 2 0.722
1097 251 4 319 2 0 2 31 3 2 0.569
1098 253 0 0 1 1 1 33 3 2 1.159
1099 253 0 1 2 1 2 32 3 2 0.661
1100 253 0 2 3 1 2 32 3 2 0.689
1101 253 0 3 2 1 0 33 3 0 0.657
1102 253 0 4 2 1 0 36 3 1 0.737
1103 253 0 5 3 0 3 31 3 3 0.903
1104 253 0 6 3 0 2 31 3 3 0.644
1105 253 0 7 2 0 2 31 3 2 0.778
1106 253 0 8 0 0 0 31 3 0 0.892
1107 253 0 9 2 0 0 33 3 2 0.665
1108 253 0 10 0 0 0 31 3 0 1.247
1109 253 0 11 0 1 1 35 3 3 0.855
1110 253 0 12 2 0 0 34 3 0 1.161
1111 253 0 13 0 1 1 33 3 0 0.904
1112 253 0 14 2 0 1 31 3 2 1.14
1113 253 0 15 0 0 2 37 3 3 1.081
1114 253 0 16 2 1 3 32 3 1 1.099
1115 253 0 17 1 1 3 31 3 2 0.763
1116 253 0 18 0 0 1 32 3 0 0.656
1117 253 0 19 2 0 1 38 3 2 0.662
1118 253 0 20 3 0 0 36 3 3 0.588
1119 253 0 21 0 1 3 33 3 1 1.147
1120 253 0 22 3 1 1 31 3 3 0.65
1121 253 0 23 3 1 1 31 3 3 0.552
1122 253 0 24 3 1 2 33 3 3 0.585
1123 253 0 25 2 1 2 32 3 2 0.744
1124 253 0 26 1 0 1 33 3 1 1.29
1125 253 0 27 3 1 2 31 3 3 0.529
1126 253 0 28 3 0 2 33 3 3 0.571
1127 253 0 29 1 1 2 32 3 1 0.923
1128 253 0 30 0 1 0 31 3 0 1.166
1129 253 0 31 1 0 1 31 3 2 0.754
1130 253 0 32 3 0 0 31 3 3 0.583
1131 253 0 33 1 1 3 38 3 0 0.743
1132 253 0 34 3 0 0 32 3 3 0.701
1133 254 0 0 2 1 2 33 3 2 0.541
1134 253 0 35 3 0 2 31 3 3 0.641
1135 254 0 1 2 0 0 31 3 2 1.358
1136 253 0 36 2 1 3 34 3 1 1.167
1137 254 0 2 3 0 2 34 3 3 0.657
1138 253 0 37 3 0 3 34 3 3 0.645
1139 254 0 3 2 1 3 31 3 2 0.509
1140 253 0 38 1 0 3 31 3 2 2.076
1141 254 0 4 2 0 3 32 3 2 0.863
1142 253 0 39 2 1 1 32 3 3 0.698
1143 254 0 5 0 0 2 33 3 0 1.099
1144 253 0 40 0 0 1 31 3 3 0.866
1145 254 0 6 3 0 2 31 3 3 1.272
1146 253 0 41 2 0 3 39 3 1 0.996
1147 254 0 7 2 1 0 34 3 2 1.198
1148 253 0 42 2 1 3 31 3 1 0.84
1149 254 0 8 0 0 0 36 3 0 0.527
1150 253 0 43 0 1 1 31 3 0 0.978
1151 254 0 9 0 0 3 33 3 0 0.68
1152 253 0 44 1 1 0 31 3 1 1.172
1153 254 0 10 2 1 3 32 3 2 0.594
1154 253 0 45 2 1 2 39 3 1 0.958
1155 254 0 11 1 0 3 33 3 1 1.201
1156 253 0 46 0 1 2 34 3 2 0.564
1157 254 0 12 3 1 3 31 3 3 0.697
1158 253 0 47 0 0 1 36 3 3 0.577
1159 254 0 13 3 1 2 32 3 3 0.955
1160 253 0 48 0 1 3 31 3 0 0.628
1161 254 0 14 1 0 0 32 3 2 0.685
1162 253 0 49 1 1 3 32 3 1 0.658
1163 254 0 15 0 1 0 39 3 0 0.507
1164 253 0 50 1 0 3 32 3 1 0.855
1165 254 0 16 1 1 0 31 3 2 0.764
1166 253 0 51 3 0 1 34 3 1 0.95
1167 254 0 17 1 1 2 37 3 1 0.463
1168 253 0 52 3 1 3 31 3 3 0.668
1169 254 0 18 3 1 3 31 3 3 0.882
1170 253 0 53 0 0 0 36 3 1 0.674
1171 254 0 19 1 0 0 33 3 0 0.614
1172 253 0 54 3 1 2 31 3 3 0.609
1173 254 0 20 2 0 0 40 3 2 0.608
1174 253 0 55 2 1 3 32 3 2 0.736
1175 254 0 21 3 0 2 35 3 3 0.695
1176 253 0 56 2 0 1 31 3 2 1.155
1177 254 0 22 1 1 3 35 3 1 0.505
1178 253 0 57 1 1 2 31 3 1 0.766
1179 254 0 23 1 1 2 31 3 1 0.41
1180 253 0 58 0 1 2 31 3 1 0.695
1181 254 0 24 1 1 3 31 3 1 0.495
1182 254 0 25 2 1 0 32 3 2 0.464
1183 253 0 59 1 1 1 35 3 1 0.694
1184 253 0 60 1 0 0 31 3 1 0.683
1185 254 0 26 3 1 3 31 3 3 0.499
1186 253 0 61 0 1 3 32 3 2 0.743
1187 254 0 27 0 1 0 31 3 0 1.45
1188 253 0 62 3 1 1 31 3 3 0.58
1189 254 0 28 2 1 0 32 3 2 0.473
1190 253 0 63 0 1 0 31 3 0 0.643
1191 254 0 29 1 1 1 31 3 1 0.395
1192 254 0 30 2 1 2 32 3 2 0.512
1193 254 0 31 2 1 0 31 3 2 0.497
1194 254 0 32 2 1 1 31 3 2 0.443
1195 254 0 33 0 1 1 34 3 0 0.422
1196 254 0 34 2 0 3 31 3 2 1.555
1197 254 0 35 2 1 1 32 3 2 1.231
1198 254 0 36 3 1 2 31 3 3 0.574
1199 254 0 37 3 1 0 31 3 3 0.612
1200 254 0 38 1 0 3 32 3 2 1.323
1201 254 0 39 0 1 2 31 3 0 0.41
1202 254 0 40 1 1 2 38 3 1 0.423
1203 254 0 41 2 1 1 38 3 2 0.411
1204 254 0 42 2 1 3 31 3 2 0.471
1205 254 0 43 1 0 0 32 3 2 2.09
1206 253 1 64 3 0 0 36 3 3 0.796
1207 254 0 44 0 1 3 31 3 0 1.246
1208 253 1 65 1 0 3 31 3 2 0.749
1209 253 1 66 3 0 3 35 3 3 0.691
1210 254 0 45 0 0 0 32 3 1 1.214
1211 254 0 46 0 0 2 47 3 0 0.522
1212 253 1 67 3 1 3 34 3 3 0.527
1213 253 1 68 2 1 1 31 3 1 0.881
1214 254 0 47 3 0 0 35 3 2 1.756
1215 253 1 69 0 0 0 33 3 0 0.514
1216 254 0 48 3 1 2 35 3 3 0.652
1217 253 1 70 3 1 1 31 3 3 0.532
1218 254 0 49 2 1 2 32 3 1 0.895
1219 253 1 71 1 0 1 32 3 2 1.183
1220 254 0 50 3 1 2 31 3 3 0.542
1221 253 1 72 0 1 0 32 3 0 0.509
1222 254 0 51 2 0 0 32 3 2 0.816
1223 253 1 73 3 0 1 32 3 3 0.472
1224 254 0 52 3 0 3 33 3 3 0.567
1225 253 1 74 0 1 1 31 3 0 0.555
1226 254 0 53 2 0 1 31 3 2 0.927
1227 253 1 75 3 1 3 37 3 3 0.523
1228 254 0 54 3 1 1 32 3 3 0.529
1229 253 1 76 3 0 2 35 3 3 0.437
1230 253 1 77 0 0 3 34 3 2 0.963
1231 254 0 55 0 1 3 31 3 2 0.842
1232 253 1 78 3 0 0 31 3 3 0.593
1233 254 0 56 0 0 2 33 3 2 0.811
1234 253 1 79 1 1 0 34 3 1 0.785
1235 254 0 57 3 1 3 31 3 3 1.149
1236 254 0 58 2 0 3 31 3 3 0.664
1237 253 1 80 0 0 3 33 3 2 1.634
1238 254 0 59 2 1 3 31 3 2 0.608
1239 253 1 81 1 1 1 33 3 0 0.526
1240 254 0 60 2 1 0 31 3 2 0.477
1241 253 1 82 2 0 2 32 3 2 1.356
1242 254 0 61 2 1 1 32 3 2 0.527
1243 253 1 83 2 1 3 33 3 2 0.576
1244 254 0 62 1 1 3 35 3 1 0.487
1245 253 1 84 1 1 0 34 3 0 0.72
1246 254 0 63 3 1 2 31 3 3 0.553
1247 253 1 85 3 1 3 31 3 3 0.766
1248 253 1 86 0 1 2 37 3 3 0.455
1249 254 1 64 0 1 2 31 3 0 0.418
1250 253 1 87 3 1 0 31 3 3 0.638
1251 254 1 65 2 0 2 33 3 2 0.559
1252 253 1 88 1 1 0 35 3 1 0.827
1253 254 1 66 3 1 0 34 3 3 0.478
1254 253 1 89 1 0 0 32 3 1 1.035
1255 254 1 67 2 0 3 31 3 3 0.769
1256 253 1 90 2 0 0 31 3 2 0.739
1257 254 1 68 2 0 0 31 3 2 0.581
1258 253 1 91 0 0 3 32 3 3 1.397
1259 254 1 69 2 0 3 33 3 2 0.861
1260 253 1 92 0 0 2 31 3 3 1.124
1261 254 1 70 0 1 1 35 3 0 0.465
1262 253 1 93 1 0 2 34 3 2 0.812
1263 254 1 71 0 1 3 31 3 0 0.612
1264 253 1 94 0 1 3 35 3 1 0.872
1265 254 1 72 1 0 1 31 3 0 0.682
1266 253 1 95 1 0 0 32 3 1 0.761
1267 254 1 73 0 1 2 39 3 0 0.617
1268 253 1 96 1 0 0 35 3 1 0.475
1269 254 1 74 1 1 2 35 3 1 0.446
1270 253 1 97 1 0 2 34 3 3 0.887
1271 254 1 75 0 1 1 31 3 1 1.042
1272 253 1 98 1 1 0 34 3 1 0.736
1273 254 1 76 3 0 2 37 3 2 0.9
1274 253 1 99 0 1 2 32 3 2 0.793
1275 254 1 77 3 0 1 32 3 3 1.46
1276 253 1 100 1 0 1 35 3 1 1.07
1277 254 1 78 2 1 1 33 3 2 0.579
1278 253 1 101 1 0 1 31 3 1 0.885
1279 254 1 79 2 0 1 31 3 0 0.81
1280 253 1 102 0 0 0 34 3 0 0.626
1281 254 1 80 0 0 1 32 3 2 0.693
1282 253 1 103 1 0 2 31 3 3 1.321
1283 254 1 81 2 0 1 32 3 1 0.683
1284 253 1 104 0 0 2 37 3 3 0.603
1285 254 1 82 0 0 0 31 3 0 0.546
1286 253 1 105 0 1 2 35 3 3 0.589
1287 254 1 83 2 0 1 31 3 2 0.713
1288 253 1 106 2 1 2 31 3 2 0.815
1289 254 1 84 3 0 3 32 3 3 0.604
1290 253 1 107 1 0 3 34 3 2 0.816
1291 254 1 85 0 1 0 45 3 0 0.393
1292 253 1 108 1 1 1 33 3 0 0.555
1293 254 1 86 3 1 0 32 3 3 0.487
1294 253 1 109 1 0 1 31 3 0 0.552
1295 254 1 87 3 1 3 32 3 3 0.872
1296 253 1 110 2 0 0 31 3 3 0.581
1297 254 1 88 1 1 2 32 3 1 0.468
1298 253 1 111 0 1 2 31 3 0 0.649
1299 254 1 89 1 0 2 33 3 0 0.719
1300 253 1 112 0 1 0 36 3 0 0.534
1301 254 1 90 3 0 1 31 3 3 0.637
1302 253 1 113 1 1 3 42 3 1 1.191
1303 254 1 91 1 0 1 31 3 1 1.419
1304 253 1 114 2 0 3 40 3 3 0.97
1305 254 1 92 3 0 1 33 3 3 1.524
1306 253 1 115 1 0 0 33 3 1 1.032
1307 254 1 93 3 0 0 31 3 3 0.697
1308 253 1 116 1 1 2 31 3 1 0.696
1309 254 1 94 2 1 2 32 3 2 0.652
1310 253 1 117 0 0 1 31 3 0 0.588
1311 254 1 95 2 1 3 33 3 2 0.656
1312 253 1 118 1 1 2 31 3 3 0.668
1313 254 1 96 2 0 0 31 3 2 0.66
1314 253 1 119 1 0 2 35 3 3 1.141
1315 254 1 97 0 1 3 32 3 0 0.424
1316 253 1 120 1 0 0 32 3 2 1.021
1317 254 1 98 0 1 0 32 3 0 0.42
1318 253 1 121 0 1 3 31 3 0 0.624
1319 254 1 99 1 0 1 31 3 0 0.881
1320 253 1 122 0 1 3 33 3 0 0.654
1321 254 1 100 1 1 3 31 3 2 0.688
1322 253 1 123 0 1 2 33 3 0 0.603
1323 254 1 101 1 1 1 33 3 1 0.454
1324 253 1 124 0 0 2 31 3 0 0.53
1325 254 1 102 0 0 3 35 3 0 0.498
1326 254 1 103 0 0 0 34 3 0 0.468
1327 253 1 125 3 1 0 32 3 1 1.076
1328 254 1 104 0 1 0 31 3 0 0.455
1329 253 1 126 1 0 0 31 3 1 0.91
1330 254 1 105 3 1 1 32 3 3 1.114
1331 253 1 127 1 1 3 33 3 2 1.346
1332 254 1 106 1 0 2 39 3 0 0.638
1333 254 1 107 1 1 2 31 3 1 0.414
1334 254 1 108 2 1 2 31 3 2 0.563
1335 254 1 109 1 0 2 32 3 2 0.627
1336 254 1 110 1 1 1 31 3 1 0.443
1337 254 1 111 1 1 0 31 3 1 0.438
1338 254 1 112 0 0 1 32 3 0 0.451
1339 254 1 113 1 1 0 37 3 1 0.304
1340 254 1 114 3 0 1 33 3 3 0.561
1341 254 1 115 0 1 2 32 3 0 0.401
1342 254 1 116 0 0 1 33 3 0 0.463
1343 254 1 117 0 0 1 31 3 0 0.586
1344 254 1 118 3 0 0 37 3 3 1.225
1345 254 1 119 3 1 0 31 3 3 0.497
1346 254 1 120 2 0 2 35 3 1 0.947
1347 254 1 121 0 1 2 33 3 0 0.424
1348 254 1 122 0 0 2 33 3 0 0.581
1349 254 1 123 0 1 0 32 3 0 1.34
1350 253 2 128 3 0 3 31 3 3 1.25
1351 254 1 124 1 0 1 36 3 0 0.704
1352 253 2 129 2 1 1 34 3 2 0.601
1353 254 1 125 1 1 0 32 3 1 0.421
1354 253 2 130 1 0 0 33 3 1 0.673
1355 254 1 126 2 1 0 31 3 2 0.473
1356 253 2 131 0 1 1 31 3 0 0.589
1357 254 1 127 1 1 1 31 3 1 0.394
1358 253 2 132 0 1 1 31 3 0 0.556
1359 253 2 133 3 1 0 37 3 3 0.556
1360 253 2 134 1 0 3 31 3 3 0.758
1361 254 2 128 1 0 1 31 3 0 0.609
1362 253 2 135 1 1 3 31 3 0 0.531
1363 254 2 129 3 1 3 31 3 3 0.49
1364 253 2 136 1 1 2 34 3 2 0.68
1365 254 2 130 2 1 0 31 3 2 0.427
1366 253 2 137 1 1 1 31 3 1 0.44
1367 254 2 131 3 1 1 33 3 3 0.48
1368 253 2 138 2 1 2 31 3 1 0.828
1369 254 2 132 3 1 0 32 3 3 0.85
1370 253 2 139 1 0 0 31 3 1 0.655
1371 254 2 133 2 1 0 32 3 2 0.638
1372 253 2 140 0 0 0 33 3 0 0.629
1373 254 2 134 0 1 0 32 3 0 0.402
1374 253 2 141 1 0 0 33 3 1 1.02
1375 254 2 135 3 0 0 32 3 3 1.216
1376 253 2 142 1 1 0 31 3 1 0.94
1377 254 2 136 1 1 1 36 3 1 0.4
1378 253 2 143 1 1 1 35 3 0 0.734
1379 254 2 137 3 0 1 32 3 3 0.646
1380 253 2 144 1 1 2 31 3 1 0.78
1381 254 2 138 3 1 2 31 3 3 0.481
1382 253 2 145 0 0 0 31 3 0 0.717
1383 254 2 139 0 0 3 31 3 3 0.86
1384 253 2 146 0 0 1 31 3 0 0.609
1385 254 2 140 2 1 2 32 3 0 0.588
1386 253 2 147 1 0 2 36 3 2 1.257
1387 254 2 141 1 1 0 31 3 1 0.445
1388 253 2 148 2 0 3 32 3 3 0.652
1389 254 2 142 1 0 2 41 3 0 0.842
1390 253 2 149 2 1 0 34 3 2 0.588
1391 254 2 143 2 1 1 31 3 2 0.674
1392 253 2 150 0 0 0 32 3 0 0.645
1393 254 2 144 0 1 3 31 3 0 0.485
1394 253 2 151 3 0 1 31 3 3 0.538
1395 254 2 145 1 0 3 38 3 0 0.584
1396 253 2 152 2 0 2 32 3 2 0.724
1397 254 2 146 3 0 0 33 3 3 0.674
1398 253 2 153 2 1 2 31 3 2 0.671
1399 254 2 147 0 0 0 32 3 0 0.534
1400 253 2 154 3 1 2 31 3 3 0.603
1401 254 2 148 0 0 3 32 3 0 0.895
1402 253 2 155 1 0 3 44 3 1 0.722
1403 254 2 149 2 0 3 34 3 0 0.715
1404 253 2 156 0 1 1 31 3 0 0.477
1405 254 2 150 2 0 3 32 3 2 0.617
1406 253 2 157 1 1 3 32 3 1 0.64
1407 254 2 151 0 1 3 36 3 0 0.607
1408 253 2 158 0 0 3 33 3 2 0.71
1409 254 2 152 3 0 3 32 3 3 0.685
1410 253 2 159 2 1 0 33 3 2 0.549
1411 254 2 153 1 0 2 31 3 3 1.121
1412 253 2 160 1 1 0 33 3 1 0.742
1413 254 2 154 2 1 2 31 3 2 0.607
1414 253 2 161 0 1 3 32 3 3 1.056
1415 254 2 155 2 0 3 35 3 3 1.389
1416 253 2 162 1 1 1 34 3 1 0.722
1417 254 2 156 2 0 2 35 3 2 0.579
1418 253 2 163 3 1 3 33 3 1 0.812
1419 254 2 157 0 0 2 37 3 0 0.475
1420 253 2 164 0 0 3 31 3 2 0.64
1421 254 2 158 1 0 0 31 3 2 0.994
1422 253 2 165 0 1 2 31 3 1 0.705
1423 254 2 159 1 1 1 36 3 1 0.493
1424 253 2 166 3 0 0 32 3 3 0.585
1425 254 2 160 1 0 2 31 3 0 0.568
1426 253 2 167 0 1 1 33 3 0 0.616
1427 254 2 161 3 0 0 32 3 3 0.787
1428 253 2 168 2 0 3 32 3 1 0.735
1429 254 2 162 2 1 2 32 3 1 0.53
1430 253 2 169 2 1 0 32 3 2 0.477
1431 254 2 163 1 0 3 36 3 2 0.583
1432 253 2 170 3 0 1 40 3 3 0.969
1433 254 2 164 1 0 1 32 3 1 1.002
1434 253 2 171 3 0 2 31 3 2 0.851
1435 254 2 165 1 1 2 32 3 1 0.393
1436 253 2 172 1 1 1 34 3 0 0.74
1437 254 2 166 1 0 0 32 3 3 0.886
1438 254 2 167 1 1 2 32 3 1 0.333
1439 253 2 173 3 1 3 34 3 3 0.625
1440 254 2 168 1 1 2 34 3 1 0.397
1441 253 2 174 0 0 2 33 3 2 1.224
1442 254 2 169 1 0 3 32 3 1 0.507
1443 253 2 175 3 1 0 31 3 3 0.452
1444 254 2 170 2 1 0 33 3 2 0.492
1445 253 2 176 3 1 1 32 3 3 0.664
1446 254 2 171 3 1 2 34 3 3 0.565
1447 253 2 177 0 1 0 32 3 0 1.045
1448 254 2 172 1 1 3 32 3 1 0.389
1449 253 2 178 3 0 0 32 3 3 0.525
1450 254 2 173 2 0 2 34 3 2 0.523
1451 253 2 179 3 0 3 31 3 3 0.791
1452 254 2 174 1 1 3 36 3 1 0.731
1453 253 2 180 3 1 1 36 3 3 0.959
1454 254 2 175 3 0 1 31 3 1 0.965
1455 253 2 181 3 1 3 32 3 3 0.61
1456 254 2 176 0 1 1 34 3 0 0.418
1457 253 2 182 2 0 3 32 3 3 0.537
1458 254 2 177 0 1 2 31 3 1 1.022
1459 253 2 183 1 1 2 39 3 2 0.845
1460 254 2 178 2 1 2 32 3 1 1.408
1461 253 2 184 2 0 0 33 3 3 0.576
1462 254 2 179 1 0 3 32 3 1 0.805
1463 253 2 185 2 1 1 32 3 0 0.804
1464 253 2 186 0 0 1 31 3 3 0.744
1465 254 2 180 3 1 1 33 3 3 0.723
1466 253 2 187 1 0 2 31 3 1 0.83
1467 254 2 181 1 1 1 33 3 1 0.444
1468 253 2 188 2 0 3 34 3 2 0.59
1469 254 2 182 0 0 0 36 3 2 0.801
1470 253 2 189 2 0 2 34 3 2 0.87
1471 254 2 183 3 1 0 35 3 3 0.643
1472 253 2 190 3 0 1 36 3 3 0.552
1473 254 2 184 3 0 3 31 3 3 0.814
1474 253 2 191 2 1 1 32 3 0 0.825
1475 254 2 185 2 1 2 31 3 2 0.589
1476 254 2 186 1 0 0 32 3 2 1.02
1477 254 2 187 3 1 2 31 3 3 1.198
1478 254 2 188 3 1 1 31 3 3 0.902
1479 254 2 189 3 0 0 36 3 3 1.714
1480 254 2 190 1 0 2 35 3 2 0.608
1481 254 2 191 1 1 1 33 3 1 0.417
1482 254 3 192 1 0 3 33 3 2 0.568
1483 254 3 193 0 1 2 33 3 0 0.402
1484 254 3 194 1 0 0 35 3 1 1.016
1485 254 3 195 3 1 1 31 3 3 0.703
1486 254 3 196 3 0 2 31 3 3 0.746
1487 253 3 192 0 0 1 31 3 0 0.472
1488 254 3 197 3 0 1 33 3 3 0.619
1489 253 3 193 3 0 2 33 3 2 0.58
1490 253 3 194 2 0 1 31 3 0 0.513
1491 254 3 198 1 1 0 31 3 2 1.744
1492 253 3 195 2 0 2 31 3 3 0.575
1493 254 3 199 0 1 2 31 3 0 0.385
1494 253 3 196 3 0 2 32 3 3 0.555
1495 254 3 200 3 0 0 33 3 3 0.671
1496 253 3 197 1 0 2 31 3 2 0.789
1497 254 3 201 3 1 3 33 3 3 0.978
1498 253 3 198 0 1 3 33 3 2 0.88
1499 254 3 202 0 1 3 31 3 0 0.458
1500 253 3 199 1 0 3 31 3 3 0.562
1501 254 3 203 3 1 3 35 3 3 0.733
1502 253 3 200 0 0 2 32 3 3 0.495
1503 254 3 204 3 0 3 32 3 3 0.607
1504 253 3 201 2 0 3 32 3 2 0.654
1505 254 3 205 1 1 3 34 3 3 0.54
1506 253 3 202 3 1 1 35 3 0 0.651
1507 253 3 203 0 0 1 33 3 2 0.741
1508 254 3 206 1 1 0 32 3 1 0.791
1509 253 3 204 2 0 0 31 3 1 0.603
1510 254 3 207 0 1 1 39 3 0 0.422
1511 253 3 205 2 1 0 31 3 0 0.573
1512 254 3 208 2 0 2 35 3 2 0.707
1513 253 3 206 0 0 2 34 3 3 0.537
1514 254 3 209 3 0 1 32 3 3 0.638
1515 253 3 207 3 1 0 34 3 0 0.558
1516 254 3 210 0 0 2 32 3 2 0.819
1517 253 3 208 0 1 0 32 3 0 0.546
1518 254 3 211 2 0 3 31 3 2 0.525
1519 253 3 209 3 1 0 36 3 3 0.499
1520 254 3 212 0 0 0 33 3 0 0.59
1521 253 3 210 2 0 0 33 3 2 1.182
1522 254 3 213 2 0 1 31 3 1 1.293
1523 253 3 211 0 1 3 33 3 0 0.536
1524 254 3 214 1 1 3 35 3 1 0.462
1525 253 3 212 0 1 0 33 3 0 0.505
1526 254 3 215 3 0 2 34 3 3 0.65
1527 253 3 213 0 0 2 33 3 3 0.58
1528 254 3 216 0 1 0 32 3 0 0.398
1529 253 3 214 2 0 2 32 3 3 0.544
1530 254 3 217 3 1 0 32 3 3 0.499
1531 253 3 215 1 1 0 33 3 1 0.549
1532 254 3 218 0 0 1 32 3 1 0.814
1533 253 3 216 1 0 3 33 3 3 0.863
1534 254 3 219 0 1 1 31 3 0 0.351
1535 253 3 217 3 1 2 32 3 2 0.584
1536 254 3 220 3 1 1 33 3 3 0.606
1537 253 3 218 1 0 2 31 3 1 0.516
1538 254 3 221 3 0 2 31 3 3 1.228
1539 253 3 219 2 0 0 32 3 2 0.799
1540 254 3 222 1 1 3 35 3 1 0.404
1541 253 3 220 0 0 2 32 3 3 0.623
1542 254 3 223 1 0 0 33 3 1 0.609
1543 253 3 221 0 1 0 32 3 1 0.432
1544 254 3 224 3 0 3 32 3 3 0.552
1545 253 3 222 1 0 3 31 3 3 0.594
1546 254 3 225 2 1 1 36 3 2 0.503
1547 253 3 223 2 1 2 32 3 2 0.724
1548 254 3 226 2 1 3 32 3 2 0.496
1549 253 3 224 1 1 0 32 3 1 0.607
1550 254 3 227 2 0 1 32 3 2 0.627
1551 253 3 225 2 0 1 34 3 3 0.582
1552 254 3 228 3 1 0 35 3 3 0.48
1553 253 3 226 3 0 1 31 3 3 0.563
1554 254 3 229 2 1 1 31 3 2 0.497
1555 253 3 227 0 0 3 43 3 0 0.972
1556 254 3 230 0 1 1 36 3 0 0.419
1557 253 3 228 0 0 0 33 3 0 0.63
1558 254 3 231 0 0 1 35 3 0 0.616
1559 254 3 232 0 1 2 34 3 0 0.454
1560 254 3 233 1 0 1 31 3 2 0.665
1561 253 3 229 0 1 1 38 3 3 4.164
1562 254 3 234 0 0 1 37 3 0 0.585
1563 253 3 230 2 1 0 37 3 0 0.567
1564 253 3 231 3 0 0 32 3 3 0.548
1565 254 3 235 2 0 2 32 3 2 0.735
1566 253 3 232 1 0 1 32 3 3 0.525
1567 254 3 236 3 0 0 32 3 3 1.856
1568 253 3 233 2 0 0 31 3 0 0.587
1569 254 3 237 2 0 2 32 3 1 0.666
1570 253 3 234 0 1 0 31 3 0 0.574
1571 254 3 238 3 0 1 32 3 3 0.578
1572 253 3 235 3 0 3 32 3 3 0.535
1573 254 3 239 2 1 3 40 3 2 0.529
1574 253 3 236 0 1 2 34 3 1 1.064
1575 254 3 240 2 0 0 31 3 2 1.186
1576 253 3 237 2 0 1 36 3 1 0.691
1577 253 3 238 0 0 3 32 3 3 0.443
1578 254 3 241 2 1 3 31 3 2 0.531
1579 254 3 242 0 1 0 32 3 0 0.467
1580 253 3 239 2 1 3 31 3 2 1.027
1581 254 3 243 3 0 3 31 3 3 0.927
1582 253 3 240 2 1 0 36 3 2 0.467
1583 253 3 241 3 0 3 34 3 3 0.592
1584 254 3 244 0 0 2 33 3 2 0.874
1585 254 3 245 1 1 0 31 3 1 0.393
1586 253 3 242 3 1 3 37 3 3 0.607
1587 253 3 243 2 0 1 31 3 3 0.71
1588 254 3 246 3 1 0 34 3 3 0.518
1589 253 3 244 2 1 1 33 3 0 0.453
1590 254 3 247 0 0 0 32 3 2 0.936
1591 253 3 245 1 1 1 34 3 1 0.652
1592 254 3 248 2 1 1 31 3 2 0.477
1593 253 3 246 0 1 1 32 3 0 0.569
1594 254 3 249 0 0 3 36 3 0 0.608
1595 254 3 250 1 1 1 31 3 1 0.383
1596 253 3 247 3 1 0 31 3 3 0.801
1597 254 3 251 0 0 0 31 3 2 0.589
1598 253 3 248 2 1 3 32 3 2 0.568
1599 254 3 252 3 1 0 31 3 3 0.551
1600 253 3 249 3 1 3 32 3 3 0.936
1601 254 3 253 3 1 1 32 3 3 0.719
1602 253 3 250 2 0 2 34 3 2 0.675
1603 254 3 254 3 0 1 31 3 3 1.153
1604 253 3 251 1 0 1 36 3 1 0.663
1605 253 3 252 0 0 0 31 3 0 0.605
1606 254 3 255 0 1 2 32 3 1 0.931
1607 253 3 253 2 1 2 35 3 2 0.779
1608 254 4 256 1 1 0 35 3 1 0.498
1609 253 3 254 0 0 1 32 3 3 0.909
1610 254 4 257 2 1 3 35 3 2 0.484
1611 253 3 255 3 1 1 31 3 3 0.644
1612 254 4 258 0 0 3 32 3 2 0.959
1613 254 4 259 0 1 3 31 3 0 0.411
1614 254 4 260 0 0 2 32 3 2 0.857
1615 254 4 261 2 0 2 32 3 1 0.714
1616 254 4 262 2 1 0 31 3 2 0.511
1617 254 4 263 1 1 2 33 3 1 0.536
1618 254 4 264 1 0 2 33 3 1 0.665
1619 254 4 265 0 1 3 31 3 0 0.444
1620 253 4 256 3 1 1 31 3 3 0.457
1621 254 4 266 1 0 1 32 3 2 0.672
1622 254 4 267 1 0 3 38 3 1 0.496
1623 253 4 257 2 1 2 31 3 2 0.845
1624 254 4 268 2 0 1 34 3 1 0.77
1625 253 4 258 3 1 2 32 3 3 0.563
1626 254 4 269 3 0 3 33 3 3 0.606
1627 253 4 259 3 1 0 32 3 3 0.42
1628 254 4 270 1 1 3 31 3 1 0.436
1629 253 4 260 3 1 1 32 3 3 0.442
1630 254 4 271 3 0 3 37 3 3 0.648
1631 253 4 261 3 0 1 31 3 2 1.063
1632 254 4 272 0 0 3 37 3 3 1.077
1633 253 4 262 2 1 3 35 3 2 0.537
1634 254 4 273 1 0 0 31 3 1 0.846
1635 253 4 263 0 0 3 33 3 2 0.515
1636 253 4 264 3 0 2 31 3 3 0.53
1637 254 4 274 0 1 3 32 3 1 0.507
1638 253 4 265 3 0 2 31 3 3 0.492
1639 254 4 275 1 0 0 33 3 1 1.017
1640 253 4 266 2 0 1 36 3 2 0.728
1641 254 4 276 3 1 1 31 3 1 1.735
1642 253 4 267 0 1 3 34 3 1 1.058
1643 254 4 277 2 0 1 31 3 2 0.641
1644 253 4 268 3 1 3 32 3 3 0.42
1645 254 4 278 2 0 0 33 3 2 1.31
1646 254 4 279 0 0 0 36 3 0 0.523
1647 254 4 280 0 1 1 35 3 0 0.372
1648 254 4 281 1 0 3 33 3 0 0.938
1649 253 4 269 3 0 1 33 3 2 6.342
1650 254 4 282 3 0 2 32 3 3 0.736
1651 253 4 270 0 1 2 31 3 2 0.507
1652 253 4 271 1 1 2 31 3 2 0.417
1653 254 4 283 0 1 0 32 3 0 0.417
1654 253 4 272 3 1 2 31 3 3 0.041
1655 254 4 284 0 0 1 32 3 0 0.558
1656 253 4 273 3 1 0 32 3 3 0.444
1657 254 4 285 3 0 3 32 3 3 0.599
1658 253 4 274 2 1 1 32 3 0 0.609
1659 254 4 286 2 0 2 35 3 3 1.405
1660 253 4 275 2 0 3 32 3 3 0.54
1661 254 4 287 2 0 0 33 3 2 0.819
1662 253 4 276 0 0 3 33 3 2 0.457
1663 253 4 277 3 0 3 33 3 1 0.042
1664 254 4 288 0 0 3 33 3 3 1.449
1665 253 4 278 3 0 2 31 3 3 0.137
1666 254 4 289 0 0 3 32 3 0 0.598
1667 253 4 279 1 1 2 31 3 1 0.633
1668 254 4 290 3 1 3 36 3 3 0.531
1669 253 4 280 3 1 2 31 3 3 0.503
1670 254 4 291 0 0 3 35 3 3 1.293
1671 253 4 281 3 0 3 31 3 2 0.754
1672 254 4 292 2 0 3 32 3 2 0.702
1673 253 4 282 1 1 1 37 3 0 0.702
1674 253 4 283 0 0 2 31 3 2 0.678
1675 254 4 293 1 0 1 32 3 1 1.025
1676 253 4 284 2 1 3 31 3 2 0.582
1677 254 4 294 1 0 2 34 3 0 0.793
1678 253 4 285 1 0 1 31 3 2 0.67
1679 254 4 295 3 0 0 35 3 3 0.556
1680 253 4 286 2 1 1 32 3 0 0.526
1681 254 4 296 0 0 1 32 3 0 0.948
1682 253 4 287 2 1 0 32 3 1 0.723
1683 254 4 297 2 0 1 31 3 0 1.846
1684 253 4 288 2 0 2 35 3 2 0.73
1685 254 4 298 3 1 2 33 3 3 0.659
1686 253 4 289 2 0 1 40 3 2 0.67
1687 254 4 299 0 0 1 33 3 1 0.768
1688 253 4 290 3 0 0 33 3 3 0.691
1689 254 4 300 1 0 1 34 3 0 0.636
1690 253 4 291 2 0 3 35 3 2 0.695
1691 253 4 292 3 0 3 32 3 3 0.38
1692 254 4 301 0 0 2 31 3 0 2.045
1693 253 4 293 3 1 2 32 3 0 0.867
1694 254 4 302 1 1 1 31 3 1 0.447
1695 253 4 294 1 0 2 32 3 2 0.517
1696 254 4 303 0 1 1 31 3 0 0.418
1697 253 4 295 0 1 0 31 3 2 0.874
1698 254 4 304 1 0 2 32 3 1 0.671
1699 253 4 296 2 0 1 32 3 3 0.588
1700 254 4 305 0 0 2 31 3 0 0.715
1701 253 4 297 0 0 1 32 3 0 0.488
1702 254 4 306 1 0 3 32 3 0 0.87
1703 253 4 298 3 1 0 33 3 3 0.602
1704 254 4 307 3 0 2 31 3 3 0.862
1705 253 4 299 1 0 2 32 3 3 0.626
1706 254 4 308 1 1 0 38 3 1 0.57
1707 253 4 300 2 1 3 32 3 0 0.595
1708 254 4 309 3 1 3 37 3 3 0.473
1709 253 4 301 1 1 3 35 3 1 0.566
1710 254 4 310 2 0 0 31 3 2 0.908
1711 253 4 302 2 1 1 32 3 0 0.55
1712 254 4 311 3 0 2 36 3 3 0.6
1713 253 4 303 3 0 1 31 3 3 0.58
1714 254 4 312 3 1 2 31 3 3 0.55
1715 253 4 304 2 0 2 37 3 2 0.653
1716 253 4 305 1 1 0 31 3 0 0.585
1717 254 4 313 3 1 1 31 3 3 0.718
1718 253 4 306 1 1 3 31 3 0 0.524
1719 254 4 314 2 1 3 31 3 2 0.575
1720 253 4 307 2 1 0 31 3 2 0.481
1721 254 4 315 2 0 0 31 3 3 1.542
1722 253 4 308 3 0 0 34 3 2 0.606
1723 254 4 316 0 1 1 37 3 0 0.494
1724 253 4 309 2 0 2 39 3 2 0.649
1725 254 4 317 2 0 1 31 3 2 0.76
1726 253 4 310 3 0 1 32 3 3 0.559
1727 254 4 318 2 0 2 31 3 2 1.337
1728 253 4 311 1 1 3 36 3 2 1.039
1729 253 4 312 1 0 3 35 3 2 0.555
1730 254 4 319 2 1 1 33 3 2 1.74
1731 253 4 313 1 1 2 31 3 2 0.559
1732 253 4 314 2 1 2 31 3 2 0.515
1733 253 4 315 2 0 3 33 3 3 0.787
1734 253 4 316 0 0 3 32 3 2 0.664
1735 253 4 317 2 0 0 34 3 3 0.817
1736 253 4 318 1 0 1 31 3 3 0.853
1737 253 4 319 2 1 1 31 3 0 0.478
1738 256 0 0 0 1 1 32 3 1 1.107
1739 256 0 1 2 1 0 34 3 1 1.3
1740 256 0 2 3 1 2 31 3 3 1.005
1741 256 0 3 3 1 3 34 3 3 1.517
1742 256 0 4 1 1 1 31 3 1 1.371
1743 256 0 5 0 0 0 32 3 0 0.935
1744 256 0 6 1 1 2 31 3 2 0.794
1745 256 0 7 0 1 0 33 3 0 0.95
1746 256 0 8 0 1 1 32 3 0 0.952
1747 256 0 9 2 0 2 36 3 1 1.331
1748 256 0 10 2 1 0 35 3 2 1.195
1749 256 0 11 1 1 0 33 3 1 4.245
1750 256 0 12 2 1 2 31 3 3 1.073
1751 256 0 13 1 1 1 31 3 2 0.908
1752 256 0 14 0 0 2 32 3 3 1.276
1753 256 0 15 2 0 2 35 3 1 1.967
1754 256 0 16 3 1 1 32 3 3 1.649
1755 256 0 17 1 1 3 35 3 1 2.249
1756 256 0 18 0 1 2 31 3 2 1.293
1757 256 0 19 0 0 1 34 3 1 1.136
1758 256 0 20 2 1 0 31 3 1 1.311
1759 256 0 21 3 0 0 33 3 2 1.217
1760 256 0 22 2 1 1 35 3 3 1.469
1761 256 0 23 0 0 0 39 3 2 1.191
1762 256 0 24 3 1 1 31 3 3 1.124
1763 256 0 25 1 0 3 39 3 1 1.37
1764 256 0 26 1 0 2 31 3 1 0.71
1765 256 0 27 2 0 1 31 3 1 0.826
1766 256 0 28 3 1 1 33 3 3 1.044
1767 256 0 29 2 1 2 31 3 1 0.787
1768 256 0 30 3 0 2 31 3 2 0.904
1769 256 0 31 0 1 3 31 3 3 1.167
1770 256 0 32 2 1 3 31 3 1 1.102
1771 256 0 33 3 1 2 32 3 3 0.958
1772 256 0 34 3 0 0 32 3 3 0.921
1773 256 0 35 2 0 3 35 3 2 0.901
1774 256 0 36 3 0 2 31 3 3 0.723
1775 256 0 37 3 0 0 31 3 1 1.286
1776 256 0 38 1 0 2 35 3 3 1.129
1777 256 0 39 0 1 0 31 3 1 1.224
1778 256 0 40 2 1 3 33 3 3 0.932
1779 256 0 41 2 0 2 31 3 2 0.913
1780 256 0 42 1 1 1 31 3 1 0.837
1781 256 0 43 1 1 3 31 3 3 0.827
1782 256 0 44 0 1 2 32 3 2 0.486
1783 256 0 45 1 0 0 32 3 1 1.381
1784 256 0 46 0 0 3 31 3 2 1.121
1785 256 0 47 3 0 3 31 3 1 0.968
1786 256 0 48 2 0 3 32 3 2 1.333
1787 256 0 49 2 1 2 35 3 1 1.178
1788 256 0 50 0 1 2 33 3 3 1.656
1789 256 0 51 0 1 1 31 3 1 0.869
1790 256 0 52 2 0 3 31 3 3 1.574
1791 256 0 53 3 0 0 36 3 2 0.799
1792 256 0 54 1 1 0 31 3 1 1.498
1793 256 0 55 3 1 3 33 3 1 0.585
1794 256 0 56 3 0 1 33 3 2 0.582
1795 256 0 57 2 1 0 35 3 2 0.969
1796 256 0 58 1 0 2 34 3 3 1.283
1797 256 0 59 2 0 2 31 3 2 0.79
1798 256 0 60 3 0 1 33 3 2 0.711
1799 256 0 61 1 0 3 31 3 2 1.679
1800 256 0 62 1 1 2 31 3 3 0.987
1801 256 0 63 1 1 2 33 3 2 0.815
1802 256 1 64 3 1 0 39 3 2 1.031
1803 256 1 65 2 0 0 33 3 2 0.723
1804 256 1 66 0 1 3 32 3 3 1.326
1805 256 1 67 0 1 3 32 3 2 0.902
1806 256 1 68 2 1 3 32 3 2 0.702
1807 256 1 69 0 0 3 33 3 2 0.61
1808 256 1 70 3 1 2 34 3 1 0.964
1809 256 1 71 1 0 1 33 3 3 1.746
1810 256 1 72 3 0 3 32 3 2 0.933
1811 256 1 73 0 1 3 31 3 1 0.636
1812 256 1 74 1 1 0 33 3 3 1.149
1813 256 1 75 1 1 0 31 3 1 1.404
1814 256 1 76 3 0 1 32 3 2 1.303
1815 256 1 77 3 0 2 31 3 3 0.681
1816 256 1 78 1 1 2 39 3 3 1.173
1817 256 1 79 3 1 2 32 3 2 0.434
1818 256 1 80 1 1 0 34 3 1 0.587
1819 256 1 81 3 0 1 32 3 1 0.803
1820 256 1 82 0 1 3 31 3 3 1.31
1821 256 1 83 3 1 0 31 3 2 1.319
1822 256 1 84 2 1 0 31 3 3 1.296
1823 256 1 85 3 0 1 31 3 2 1.106
1824 256 1 86 3 1 1 32 3 1 1.106
1825 256 1 87 2 0 1 32 3 2 1.499
1826 256 1 88 1 1 1 32 3 2 1.338
1827 256 1 89 3 0 3 31 3 3 1.307
1828 256 1 90 3 0 2 36 3 2 1.001
1829 256 1 91 1 1 1 31 3 1 1.549
1830 256 1 92 1 0 1 33 3 1 0.771
1831 256 1 93 1 1 1 33 3 1 0.78
1832 256 1 94 0 0 1 33 3 0 1.325
1833 256 1 95 0 0 1 31 3 0 0.747
1834 256 1 96 3 1 0 32 3 3 1.205
1835 256 1 97 1 0 3 31 3 2 1.013
1836 256 1 98 1 0 3 31 3 3 0.818
1837 256 1 99 2 0 2 31 3 2 0.726
1838 256 1 100 1 0 2 33 3 2 0.778
1839 256 1 101 0 0 3 31 3 3 0.638
1840 256 1 102 3 1 0 38 3 1 0.336
1841 256 1 103 2 1 3 34 3 2 0.523
1842 256 1 104 1 0 2 32 3 2 0.502
1843 256 1 105 3 0 1 36 3 1 1.109
1844 256 1 106 2 1 2 40 3 3 0.837
1845 256 1 107 1 1 2 32 3 1 1.023
1846 256 1 108 2 1 3 38 3 1 1.023
1847 256 1 109 1 1 2 32 3 1 0.818
1848 256 1 110 2 0 0 36 3 2 1.122
1849 256 1 111 0 1 3 34 3 1 0.942
1850 256 1 112 0 1 2 34 3 2 0.948
1851 256 1 113 1 1 3 36 3 3 1.995
1852 256 1 114 1 1 2 38 3 3 1.099
1853 256 1 115 0 0 2 32 3 2 0.981
1854 256 1 116 2 0 3 31 3 3 1.123
1855 256 1 117 1 0 1 31 3 2 1.1
1856 256 1 118 1 0 3 31 3 3 0.965
1857 256 1 119 1 0 2 39 3 1 0.788
1858 256 1 120 1 1 0 32 3 1 1.148
1859 256 1 121 2 1 1 31 3 0 1.303
1860 256 1 122 0 1 1 32 3 2 0.848
1861 256 1 123 1 1 1 31 3 1 0.906
1862 256 1 124 3 1 3 33 3 2 0.814
1863 256 1 125 1 0 1 39 3 0 1.138
1864 256 1 126 0 0 3 32 3 2 0.842
1865 256 1 127 3 0 3 32 3 3 0.509
1866 256 2 128 3 0 0 35 3 3 1.317
1867 256 2 129 0 0 3 31 3 2 1.171
1868 256 2 130 2 1 1 32 3 1 0.833
1869 256 2 131 1 1 3 34 3 3 0.764
1870 256 2 132 1 0 0 35 3 1 1.009
1871 256 2 133 2 0 0 31 3 1 0.875
1872 256 2 134 1 0 0 31 3 2 0.892
1873 256 2 135 0 1 0 31 3 1 0.628
1874 256 2 136 0 1 0 32 3 1 1.141
1875 256 2 137 2 0 1 31 3 1 0.909
1876 256 2 138 3 1 2 36 3 3 1.189
1877 256 2 139 0 0 1 32 3 0 1.303
1878 256 2 140 1 1 3 31 3 2 1.484
1879 256 2 141 0 0 1 32 3 0 0.728
1880 256 2 142 1 1 3 32 3 3 0.594
1881 256 2 143 2 0 0 32 3 2 0.862
1882 256 2 144 3 1 3 36 3 3 1.044
1883 256 2 145 3 1 2 33 3 3 0.434
1884 256 2 146 1 0 0 32 3 2 0.816
1885 256 2 147 3 1 3 31 3 3 0.395
1886 256 2 148 3 1 1 32 3 1 0.322
1887 256 2 149 3 1 0 31 3 2 0.078
1888 256 2 150 3 0 0 38 3 3 0.156
1889 256 2 151 3 1 2 31 3 3 0.363
1890 256 2 152 1 0 2 33 3 2 0.411
1891 256 2 153 1 0 1 39 3 3 0.781
1892 256 2 154 3 0 2 33 3 3 1.314
1893 256 2 155 3 1 3 33 3 1 1.335
1894 256 2 156 3 0 1 32 3 2 1.096
1895 256 2 157 3 0 1 32 3 3 0.786
1896 256 2 158 3 0 3 34 3 3 0.627
1897 256 2 159 1 0 0 32 3 2 0.921
1898 256 2 160 0 0 0 33 3 1 1.065
1899 256 2 161 3 0 2 31 3 3 0.612
1900 256 2 162 2 0 2 31 3 3 0.572
1901 256 2 163 0 1 3 36 3 2 1.087
1902 256 2 164 2 1 0 33 3 1 0.88
1903 256 2 165 3 0 0 31 3 3 0.785
1904 256 2 166 3 1 0 34 3 3 0.745
1905 256 2 167 1 1 0 32 3 3 0.627
1906 256 2 168 3 1 3 33 3 3 0.645
1907 256 2 169 0 0 1 41 3 1 0.507
1908 256 2 170 3 0 0 31 3 2 0.554
1909 256 2 171 0 0 1 40 3 3 0.791
1910 256 2 172 2 1 1 31 3 3 0.562
1911 256 2 173 0 0 1 33 3 3 0.927
1912 256 2 174 2 0 2 32 3 1 1.295
1913 256 2 175 0 1 2 33 3 2 0.521
1914 256 2 176 0 0 2 35 3 3 0.567
1915 256 2 177 2 1 2 35 3 2 1.371
1916 256 2 178 1 0 0 32 3 2 0.951
1917 256 2 179 1 0 1 31 3 3 0.502
1918 256 2 180 0 1 0 32 3 1 1.164
1919 256 2 181 1 1 3 33 3 2 0.747
1920 256 2 182 2 0 0 31 3 2 0.913
1921 256 2 183 0 1 2 31 3 1 0.885
1922 256 2 184 2 0 0 31 3 1 0.838
1923 256 2 185 1 0 0 31 3 1 0.743
1924 256 2 186 1 1 2 35 3 3 0.673
1925 256 2 187 1 1 2 38 3 2 0.641
1926 256 2 188 3 1 2 34 3 1 1.106
1927 256 2 189 2 0 1 35 3 2 1.003
1928 256 2 190 2 1 2 35 3 3 0.46
1929 256 2 191 2 1 1 32 3 2 0.675
1930 256 3 192 2 1 1 34 3 2 0.979
1931 256 3 193 2 1 3 33 3 2 0.789
1932 256 3 194 0 0 3 33 3 2 0.646
1933 256 3 195 3 0 1 31 3 3 1.375
1934 256 3 196 2 1 0 34 3 1 0.801
1935 256 3 197 2 1 3 38 3 2 0.589
1936 256 3 198 1 0 2 33 3 2 0.837
1937 256 3 199 1 1 0 34 3 1 0.286
1938 256 3 200 1 1 0 31 3 2 0.888
1939 256 3 201 2 0 2 35 3 2 0.745
1940 256 3 202 0 1 1 31 3 0 0.851
1941 256 3 203 0 1 2 31 3 2 0.985
1942 256 3 204 0 1 1 31 3 0 0.685
1943 256 3 205 2 0 3 40 3 2 0.978
1944 256 3 206 2 1 1 34 3 0 0.659
1945 256 3 207 0 1 1 31 3 0 0.66
1946 256 3 208 0 0 3 31 3 2 1.065
1947 256 3 209 1 0 1 37 3 0 0.644
1948 256 3 210 0 1 1 31 3 0 0.853
1949 256 3 211 0 1 2 36 3 2 0.826
1950 256 3 212 3 1 1 36 3 2 0.981
1951 256 3 213 1 0 3 32 3 1 1.187
1952 256 3 214 0 0 2 34 3 1 0.725
1953 256 3 215 1 1 1 40 3 0 0.58
1954 256 3 216 3 0 0 31 3 2 0.592
1955 256 3 217 1 1 3 33 3 2 0.562
1956 256 3 218 1 0 2 31 3 0 1.071
1957 256 3 219 2 1 1 31 3 1 0.849
1958 256 3 220 2 1 0 33 3 0 0.891
1959 256 3 221 1 0 3 34 3 0 0.924
1960 256 3 222 0 0 2 38 3 1 0.891
1961 256 3 223 2 1 3 31 3 2 0.435
1962 256 3 224 0 0 2 34 3 2 0.657
1963 256 3 225 0 0 0 31 3 1 0.473
1964 256 3 226 2 1 0 34 3 0 1.312
1965 256 3 227 2 0 3 32 3 1 1.184
1966 256 3 228 0 0 0 35 3 0 0.823
1967 256 3 229 2 0 3 31 3 2 0.902
1968 256 3 230 2 0 0 36 3 2 0.963
1969 256 3 231 3 1 2 33 3 2 0.501
1970 256 3 232 3 0 2 40 3 1 0.708
1971 256 3 233 2 0 3 34 3 2 0.459
1972 256 3 234 1 1 2 32 3 2 0.447
1973 256 3 235 2 1 1 36 3 0 0.551
1974 256 3 236 0 0 2 31 3 1 0.405
1975 256 3 237 1 1 3 34 3 2 0.222
1976 256 3 238 1 0 1 33 3 1 0.839
1977 256 3 239 0 0 3 37 3 1 0.63
1978 256 3 240 1 1 0 35 3 2 0.423
1979 256 3 241 2 1 1 32 3 1 0.432
1980 256 3 242 0 1 1 32 3 0 0.585
1981 256 3 243 1 0 3 33 3 1 0.801
1982 256 3 244 0 1 0 35 3 0 0.68
1983 256 3 245 1 1 1 32 3 0 0.613
1984 256 3 246 3 1 0 31 3 1 0.599
1985 256 3 247 0 1 0 33 3 1 0.489
1986 256 3 248 0 1 3 33 3 2 0.448
1987 256 3 249 3 0 3 36 3 1 0.721
1988 256 3 250 2 0 1 33 3 0 0.904
1989 256 3 251 1 0 2 32 3 1 0.744
1990 256 3 252 1 0 0 34 3 1 0.683
1991 256 3 253 0 1 2 31 3 2 0.631
1992 256 3 254 3 0 2 34 3 1 0.737
1993 256 3 255 2 1 0 33 3 2 0.879
1994 256 4 256 3 1 3 32 3 2 0.638
1995 256 4 257 1 0 0 35 3 1 0.648
1996 256 4 258 0 1 2 33 3 2 0.469
1997 256 4 259 1 0 1 32 3 0 0.853
1998 256 4 260 3 1 1 33 3 0 0.686
1999 256 4 261 0 0 3 33 3 1 0.374
2000 256 4 262 0 0 2 31 3 2 1.258
2001 256 4 263 0 1 0 31 3 1 0.869
2002 256 4 264 2 1 2 31 3 0 0.573
2003 256 4 265 3 0 0 33 3 1 0.826
2004 256 4 266 0 1 1 31 3 2 1.396
2005 256 4 267 2 0 1 33 3 1 1.539
2006 256 4 268 3 0 2 32 3 2 1.597
2007 256 4 269 3 1 0 38 3 2 1.26
2008 256 4 270 3 0 3 32 3 3 1.418
2009 256 4 271 2 1 2 31 3 2 1.02
2010 256 4 272 0 0 1 34 3 1 0.757
2011 256 4 273 0 0 0 32 3 0 0.583
2012 256 4 274 1 0 0 32 3 1 0.864
2013 256 4 275 0 0 0 37 3 0 0.831
2014 256 4 276 0 0 2 31 3 2 1.23
2015 256 4 277 1 0 1 31 3 3 0.675
2016 256 4 278 3 0 3 33 3 1 0.06
2017 256 4 279 2 0 2 34 3 2 1.355
2018 256 4 280 3 0 3 32 3 2 0.616
2019 256 4 281 0 0 0 31 3 0 0.227
2020 256 4 282 2 0 0 37 3 0 0.696
2021 256 4 283 2 0 1 31 3 1 0.448
2022 256 4 284 0 0 0 33 3 1 0.993
2023 256 4 285 0 1 0 31 3 1 0.901
2024 256 4 286 0 1 0 32 3 2 0.125
2025 256 4 287 3 0 3 31 3 3 0.345
2026 256 4 288 2 1 3 31 3 3 0.561
2027 256 4 289 2 0 2 32 3 2 0.59
2028 256 4 290 1 1 3 37 3 1 1.405
2029 256 4 291 3 1 2 47 3 0 0.895
2030 256 4 292 3 0 1 33 3 2 1.072
2031 256 4 293 3 1 1 31 3 0 0.802
2032 256 4 294 1 0 3 31 3 2 0.662
2033 256 4 295 2 1 2 31 3 3 0.422
2034 256 4 296 3 1 1 33 3 0 0.895
2035 256 4 297 2 0 1 32 3 2 0.944
2036 256 4 298 0 1 3 34 3 2 0.722
2037 256 4 299 0 0 2 33 3 1 0.489
2038 256 4 300 3 1 0 34 3 2 0.08
2039 256 4 301 0 0 0 31 3 3 0.539
2040 256 4 302 1 0 3 31 3 0 0.553
2041 256 4 303 0 0 1 32 3 1 0.87
2042 256 4 304 2 0 3 32 3 2 0.871
2043 256 4 305 2 0 3 34 3 2 0.501
2044 256 4 306 3 1 3 31 3 1 0.888
2045 256 4 307 2 0 1 31 3 0 1.801
2046 256 4 308 3 1 0 36 3 2 0.384
2047 256 4 309 0 1 3 35 3 3 0.539
2048 256 4 310 2 0 0 31 3 0 0.728
2049 256 4 311 2 0 0 41 3 2 0.975
2050 256 4 312 0 0 3 32 3 2 1.017
2051 256 4 313 2 1 2 37 3 2 0.909
2052 256 4 314 3 1 3 32 3 1 0.689
2053 256 4 315 2 0 1 32 3 2 0.617
2054 256 4 316 1 1 1 31 3 1 0.839
2055 256 4 317 3 1 1 31 3 2 0.382
2056 256 4 318 3 0 2 39 3 1 0.849
2057 256 4 319 2 1 3 31 3 3 0.234
2058 258 0 0 2 0 3 32 3 2 1.219
2059 258 0 1 0 0 1 39 3 1 0.896
2060 258 0 2 3 0 0 31 3 3 1.005
2061 258 0 3 0 1 2 39 3 0 1.498
2062 258 0 4 0 0 1 31 3 0 0.733
2063 258 0 5 1 1 0 31 3 1 1.22
2064 258 0 6 3 1 2 36 3 0 0.76
2065 258 0 7 0 1 0 32 3 0 0.737
2066 258 0 8 2 0 3 36 3 3 1.215
2067 258 0 9 3 0 1 31 3 3 0.977
2068 258 0 10 2 0 2 32 3 3 1.335
2069 258 0 11 0 1 2 31 3 0 1.611
2070 258 0 12 1 0 2 33 3 1 0.939
2071 258 0 13 1 0 1 36 3 2 0.834
2072 258 0 14 1 0 3 32 3 1 0.76
2073 258 0 15 1 0 0 32 3 1 0.774
2074 258 0 16 2 0 2 31 3 2 0.804
2075 258 0 17 3 0 3 31 3 3 1.008
2076 258 0 18 1 0 0 32 3 1 0.773
2077 258 0 19 2 0 2 31 3 1 0.834
2078 258 0 20 0 1 3 32 3 1 1
2079 258 0 21 2 1 1 33 3 1 0.936
2080 258 0 22 1 0 3 36 3 1 0.883
2081 258 0 23 0 1 1 33 3 2 0.964
2082 258 0 24 2 1 2 36 3 1 1.237
2083 258 0 25 2 1 0 31 3 1 0.877
2084 258 0 26 2 0 1 33 3 1 0.65
2085 258 0 27 1 1 0 31 3 1 1.111
2086 258 0 28 3 0 2 32 3 3 0.984
2087 258 0 29 1 0 0 33 3 1 0.766
2088 258 0 30 1 1 1 31 3 2 0.931
2089 258 0 31 1 0 1 31 3 1 0.783
2090 258 0 32 0 1 3 32 3 3 1.027
2091 258 0 33 1 1 0 32 3 1 0.946
2092 258 0 34 0 1 1 32 3 1 0.625
2093 258 0 35 3 1 1 31 3 2 1.086
2094 258 0 36 2 1 3 33 3 1 0.651
2095 258 0 37 3 0 3 34 3 3 0.928
2096 258 0 38 0 1 3 31 3 3 1.046
2097 258 0 39 3 1 0 32 3 3 1.012
2098 258 0 40 0 1 1 32 3 1 0.848
2099 258 0 41 3 1 0 35 3 3 1.11
2100 258 0 42 3 0 0 32 3 3 0.984
2101 258 0 43 1 0 3 31 3 1 0.797
2102 258 0 44 2 1 1 31 3 1 0.849
2103 258 0 45 3 0 2 36 3 3 1.024
2104 258 0 46 1 0 2 32 3 1 0.74
2105 258 0 47 1 1 0 34 3 1 1.162
2106 258 0 48 2 1 3 32 3 1 0.657
2107 258 0 49 0 1 3 32 3 1 0.589
2108 258 0 50 3 0 0 33 3 3 0.916
2109 258 0 51 3 0 3 31 3 3 0.928
2110 258 0 52 1 0 2 33 3 1 0.904
2111 258 0 53 3 0 3 31 3 3 0.833
2112 258 0 54 1 0 0 32 3 2 0.684
2113 258 0 55 0 0 2 31 3 0 0.849
2114 258 0 56 0 0 1 31 3 1 0.684
2115 258 0 57 2 1 0 31 3 3 1.111
2116 258 0 58 2 0 0 31 3 2 0.764
2117 258 0 59 3 1 3 33 3 3 1.105
2118 258 0 60 1 0 3 31 3 1 0.963
2119 258 0 61 2 0 2 31 3 2 0.858
2120 258 0 62 3 1 1 34 3 3 1.115
2121 258 0 63 3 0 1 32 3 3 0.829
2122 258 1 64 1 1 0 35 3 1 0.967
2123 258 1 65 2 0 1 32 3 2 0.798
2124 258 1 66 0 0 1 34 3 1 0.779
2125 258 1 67 0 0 2 31 3 3 0.907
2126 258 1 68 0 0 2 31 3 0 0.872
2127 258 1 69 3 1 1 35 3 0 1.113
2128 258 1 70 2 1 0 32 3 1 0.853
2129 258 1 71 3 0 2 31 3 1 1.507
2130 258 1 72 1 0 0 31 3 1 0.65
2131 258 1 73 1 1 3 31 3 2 0.963
2132 258 1 74 0 1 1 31 3 1 0.868
2133 258 1 75 2 1 3 32 3 3 1.001
2134 258 1 76 2 0 1 32 3 2 0.786
2135 258 1 77 0 0 0 32 3 2 0.831
2136 258 1 78 1 0 0 31 3 1 0.766
2137 258 1 79 1 0 1 34 3 1 0.572
2138 258 1 80 2 0 3 31 3 3 0.881
2139 258 1 81 1 1 2 33 3 1 0.933
2140 258 1 82 2 1 2 37 3 1 0.548
2141 258 1 83 0 1 2 36 3 1 0.532
2142 258 1 84 0 0 0 32 3 1 0.862
2143 258 1 85 1 0 3 32 3 3 1.164
2144 258 1 86 3 1 2 33 3 1 1.526
2145 258 1 87 0 0 3 32 3 0 1.22
2146 258 1 88 2 1 0 31 3 1 0.965
2147 258 1 89 3 1 2 32 3 3 1.143
2148 258 1 90 2 0 0 31 3 1 1.063
2149 258 1 91 0 1 3 35 3 3 1.093
2150 258 1 92 0 1 1 39 3 0 1.074
2151 258 1 93 1 0 2 37 3 1 0.981
2152 258 1 94 3 1 0 34 3 3 0.962
2153 258 1 95 3 1 1 31 3 3 1.04
2154 258 1 96 0 0 1 34 3 1 0.868
2155 258 1 97 3 1 0 36 3 1 0.872
2156 258 1 98 0 0 3 32 3 0 1.046
2157 258 1 99 3 1 2 34 3 1 1.057
2158 258 1 100 0 0 3 32 3 0 0.936
2159 258 1 101 1 1 2 31 3 1 1.046
2160 258 1 102 0 0 0 32 3 0 0.826
2161 258 1 103 3 1 0 33 3 3 1.021
2162 258 1 104 2 0 2 31 3 1 0.897
2163 258 1 105 1 1 1 42 3 0 0.949
2164 258 1 106 1 0 0 35 3 1 0.864
2165 258 1 107 0 0 1 37 3 0 0.762
2166 258 1 108 1 1 3 31 3 1 0.928
2167 258 1 109 2 1 1 33 3 0 0.863
2168 258 1 110 3 1 1 31 3 3 0.82
2169 258 1 111 1 1 1 33 3 1 0.742
2170 258 1 112 0 1 3 31 3 3 0.94
2171 258 1 113 0 0 2 35 3 1 0.887
2172 258 1 114 2 0 1 33 3 2 0.74
2173 258 1 115 2 0 2 32 3 2 0.579
2174 258 1 116 0 1 1 33 3 0 1.07
2175 258 1 117 0 0 2 31 3 0 0.705
2176 258 1 118 2 1 2 33 3 1 1.048
2177 258 1 119 1 0 1 31 3 1 0.703
2178 258 1 120 2 1 3 32 3 1 0.726
2179 258 1 121 0 0 0 32 3 0 0.809
2180 258 1 122 2 1 2 34 3 2 0.954
2181 258 1 123 1 1 0 33 3 1 1.208
2182 258 1 124 3 0 0 32 3 3 1.67
2183 258 1 125 2 1 0 35 3 2 0.97
2184 258 1 126 1 0 2 31 3 1 1.38
2185 258 1 127 0 1 3 33 3 1 0.739
2186 258 2 128 3 1 3 34 3 1 2.046
2187 258 2 129 3 1 1 31 3 3 1.016
2188 258 2 130 0 1 0 34 3 1 1.236
2189 258 2 131 3 1 1 31 3 3 0.859
2190 258 2 132 3 0 3 31 3 3 1.11
2191 258 2 133 1 0 3 31 3 0 0.935
2192 258 2 134 2 0 1 32 3 1 0.754
2193 258 2 135 2 0 0 32 3 3 1.012
2194 258 2 136 3 1 3 31 3 1 1.076
2195 258 2 137 2 0 0 31 3 2 0.794
2196 258 2 138 0 0 3 31 3 0 0.935
2197 258 2 139 1 1 2 37 3 0 1.189
2198 258 2 140 1 0 3 31 3 1 1.159
2199 258 2 141 3 0 2 31 3 3 0.919
2200 258 2 142 1 0 1 34 3 1 0.703
2201 258 2 143 3 0 1 36 3 3 0.911
2202 258 2 144 2 1 0 31 3 2 1.007
2203 258 2 145 3 0 1 31 3 3 0.884
2204 258 2 146 2 0 0 32 3 1 0.829
2205 258 2 147 1 1 2 32 3 2 0.867
2206 258 2 148 3 1 2 36 3 3 0.792
2207 258 2 149 0 1 3 33 3 2 0.972
2208 258 2 150 0 1 0 33 3 2 1.261
2209 258 2 151 1 1 1 38 3 1 0.804
2210 258 2 152 3 0 0 34 3 3 0.816
2211 258 2 153 1 0 1 35 3 2 0.876
2212 258 2 154 0 0 3 34 3 3 1.05
2213 258 2 155 3 1 2 31 3 2 1.064
2214 258 2 156 3 0 3 31 3 3 0.943
2215 258 2 157 3 0 3 31 3 3 0.966
2216 258 2 158 2 0 3 32 3 2 1.053
2217 258 2 159 1 1 3 32 3 2 1.223
2218 258 2 160 1 0 3 31 3 1 0.968
2219 258 2 161 2 0 3 31 3 1 0.878
2220 258 2 162 0 0 3 34 3 0 0.844
2221 258 2 163 1 1 2 31 3 0 1.79
2222 258 2 164 1 1 1 31 3 0 1.057
2223 258 2 165 3 0 3 32 3 3 1.144
2224 258 2 166 0 0 1 33 3 0 1.001
2225 258 2 167 3 0 1 31 3 3 1.054
2226 258 2 168 1 0 2 31 3 1 0.801
2227 258 2 169 1 1 1 32 3 0 1.189
2228 258 2 170 2 1 0 31 3 0 0.926
2229 258 2 171 1 0 2 31 3 1 0.97
2230 258 2 172 2 1 1 31 3 1 0.871
2231 258 2 173 2 1 0 39 3 0 1.196
2232 258 2 174 0 0 2 32 3 0 1.87
2233 258 2 175 2 1 1 32 3 1 0.955
2234 258 2 176 3 0 0 31 3 3 0.997
2235 258 2 177 0 1 0 32 3 0 0.93
2236 258 2 178 2 0 3 31 3 1 0.938
2237 258 2 179 2 1 2 31 3 1 1.036
2238 258 2 180 1 1 1 36 3 1 0.955
2239 258 2 181 3 0 1 31 3 3 0.946
2240 258 2 182 2 1 0 34 3 1 0.816
2241 258 2 183 0 0 0 33 3 0 0.895
2242 258 2 184 2 1 1 33 3 1 0.848
2243 258 2 185 0 1 3 33 3 2 1.061
2244 258 2 186 1 0 1 33 3 1 0.764
2245 258 2 187 2 0 2 31 3 3 1.098
2246 258 2 188 1 1 3 31 3 1 0.838
2247 258 2 189 3 0 0 36 3 3 0.833
2248 258 2 190 2 1 2 31 3 1 1.044
2249 258 2 191 1 1 3 31 3 1 0.834
2250 258 3 192 1 0 0 35 3 2 0.832
2251 258 3 193 0 0 1 32 3 1 0.687
2252 258 3 194 2 0 1 31 3 2 0.707
2253 258 3 195 2 1 1 32 3 0 1.178
2254 258 3 196 2 0 1 36 3 2 0.861
2255 258 3 197 0 1 1 33 3 2 0.942
2256 258 3 198 1 1 2 37 3 1 0.928
2257 258 3 199 0 1 1 31 3 1 0.816
2258 258 3 200 1 1 0 32 3 0 1.126
2259 258 3 201 3 0 2 37 3 3 1.035
2260 258 3 202 1 0 1 35 3 1 0.895
2261 258 3 203 0 0 3 33 3 3 0.952
2262 258 3 204 2 1 2 33 3 2 0.874
2263 258 3 205 2 1 3 31 3 1 0.89
2264 258 3 206 0 0 0 32 3 2 0.823
2265 258 3 207 0 1 3 31 3 1 0.862
2266 258 3 208 3 1 1 31 3 3 0.851
2267 258 3 209 3 1 0 32 3 3 1.076
2268 258 3 210 3 0 0 32 3 2 1.047
2269 258 3 211 2 1 3 34 3 1 0.789
2270 258 3 212 2 0 0 37 3 2 0.742
2271 258 3 213 0 0 2 32 3 3 0.9
2272 258 3 214 1 0 3 31 3 1 0.801
2273 258 3 215 2 0 0 33 3 3 1.197
2274 258 3 216 0 0 0 31 3 1 0.751
2275 258 3 217 1 1 3 31 3 1 0.808
2276 258 3 218 3 1 2 31 3 3 0.923
2277 258 3 219 3 1 3 32 3 1 0.81
2278 258 3 220 1 1 3 31 3 1 0.849
2279 258 3 221 3 0 0 32 3 3 0.956
2280 258 3 222 2 0 1 33 3 2 0.771
2281 258 3 223 0 1 0 32 3 1 0.776
2282 258 3 224 3 1 0 31 3 3 0.864
2283 258 3 225 0 0 0 32 3 0 1.002
2284 258 3 226 3 1 3 33 3 3 1.046
2285 258 3 227 1 1 2 32 3 0 1.025
2286 258 3 228 0 1 0 34 3 3 0.816
2287 258 3 229 0 1 0 31 3 0 0.839
2288 258 3 230 1 1 2 34 3 0 0.921
2289 258 3 231 2 1 1 37 3 1 0.94
2290 258 3 232 3 0 2 31 3 3 0.967
2291 258 3 233 0 1 2 31 3 1 0.948
2292 258 3 234 0 1 2 34 3 0 0.806
2293 258 3 235 2 1 1 40 3 0 0.794
2294 258 3 236 2 1 2 34 3 1 0.817
2295 258 3 237 1 0 0 35 3 3 1.296
2296 258 3 238 0 0 2 33 3 1 0.894
2297 258 3 239 1 1 2 33 3 1 0.866
2298 258 3 240 1 0 2 36 3 1 0.861
2299 258 3 241 3 0 3 31 3 3 0.839
2300 258 3 242 0 1 2 33 3 1 1.017
2301 258 3 243 3 1 2 34 3 3 0.972
2302 258 3 244 2 0 1 34 3 2 0.978
2303 258 3 245 3 1 3 34 3 1 0.847
2304 258 3 246 0 1 2 31 3 1 0.837
2305 258 3 247 1 1 1 32 3 0 0.699
2306 258 3 248 0 0 3 32 3 3 0.943
2307 258 3 249 3 1 2 31 3 3 0.913
2308 258 3 250 2 1 3 32 3 1 0.737
2309 258 3 251 1 1 0 34 3 2 0.906
2310 258 3 252 2 0 3 31 3 2 0.854
2311 258 3 253 1 0 1 31 3 2 1.072
2312 258 3 254 1 1 0 33 3 1 0.829
2313 258 3 255 1 0 2 32 3 1 1.081
2314 258 4 256 0 0 0 31 3 1 0.883
2315 258 4 257 2 1 3 32 3 3 1.207
2316 258 4 258 2 0 2 31 3 1 0.808
2317 258 4 259 2 0 3 31 3 2 0.904
2318 258 4 260 1 1 2 31 3 1 0.936
2319 258 4 261 1 0 3 33 3 1 0.719
2320 258 4 262 1 1 3 32 3 2 0.934
2321 258 4 263 0 0 1 32 3 0 1.121
2322 258 4 264 2 1 2 32 3 3 1.353
2323 258 4 265 2 0 2 34 3 2 0.869
2324 258 4 266 0 1 2 32 3 1 0.902
2325 258 4 267 0 1 1 34 3 1 0.841
2326 258 4 268 3 0 1 34 3 3 0.92
2327 258 4 269 3 0 1 31 3 3 0.752
2328 258 4 270 3 0 1 32 3 3 0.974
2329 258 4 271 3 1 3 32 3 3 1.211
2330 258 4 272 2 0 3 37 3 2 0.841
2331 258 4 273 3 1 1 32 3 3 1.099
2332 258 4 274 3 0 1 32 3 3 0.86
2333 258 4 275 3 0 2 38 3 3 0.807
2334 258 4 276 3 1 3 32 3 3 1.002
2335 258 4 277 2 1 2 31 3 2 0.934
2336 258 4 278 0 1 0 32 3 2 1.093
2337 258 4 279 3 1 0 31 3 3 0.882
2338 258 4 280 3 1 2 32 3 3 0.851
2339 258 4 281 2 0 0 32 3 2 1.117
2340 258 4 282 1 1 0 35 3 2 1.013
2341 258 4 283 3 1 1 32 3 3 0.869
2342 258 4 284 3 0 0 31 3 3 1.007
2343 258 4 285 2 1 3 31 3 3 1.054
2344 258 4 286 2 1 1 32 3 2 0.908
2345 258 4 287 0 0 2 31 3 0 0.869
2346 258 4 288 1 0 1 32 3 2 0.942
2347 258 4 289 2 0 0 31 3 2 0.841
2348 258 4 290 0 1 0 31 3 0 0.971
2349 258 4 291 2 0 0 31 3 2 1.009
2350 258 4 292 0 1 2 31 3 0 1.214
2351 258 4 293 0 0 2 31 3 0 0.923
2352 258 4 294 3 1 0 31 3 0 0.955
2353 258 4 295 3 1 0 33 3 3 0.876
2354 258 4 296 0 0 0 33 3 1 0.854
2355 258 4 297 3 0 2 31 3 3 0.884
2356 258 4 298 0 0 1 32 3 1 1.133
2357 258 4 299 2 1 3 34 3 1 0.872
2358 258 4 300 1 1 3 35 3 1 0.749
2359 258 4 301 2 1 0 31 3 3 0.946
2360 258 4 302 3 1 3 40 3 3 0.884
2361 258 4 303 0 1 1 33 3 0 0.789
2362 258 4 304 0 0 3 32 3 3 0.946
2363 258 4 305 3 1 3 31 3 3 0.996
2364 258 4 306 0 1 0 31 3 0 0.912
2365 258 4 307 2 0 3 31 3 1 0.825
2366 258 4 308 2 0 1 38 3 2 0.856
2367 258 4 309 2 0 2 31 3 2 0.707
2368 258 4 310 3 0 2 32 3 3 0.786
2369 258 4 311 1 0 2 32 3 1 0.847
2370 258 4 312 3 0 2 32 3 3 0.746
2371 258 4 313 0 0 3 35 3 3 0.729
2372 258 4 314 1 1 3 37 3 1 0.883
2373 258 4 315 1 1 1 37 3 1 0.883
2374 258 4 316 1 1 1 33 3 1 0.899
2375 258 4 317 3 0 3 34 3 3 0.908
2376 258 4 318 1 0 0 31 3 1 0.997
2377 258 4 319 0 1 2 38 3 1 0.786
