datID sessionID block trial target cue location forePeriod cuetime resp rt
1 285 0 0 1 1 3 34 3 1 0.56
2 285 0 1 0 0 0 31 3 0 0.829
3 285 0 2 3 0 1 32 3 3 0.588
4 285 0 3 1 1 0 33 3 1 0.521
5 285 0 4 3 0 3 34 3 3 0.707
6 287 0 0 2 0 3 32 3 0 2.311
7 287 0 1 1 1 2 31 3 2 0.619
8 287 0 2 3 1 2 33 3 2 1.548
9 287 0 3 1 1 0 38 3 0 0.498
10 287 0 4 1 0 1 36 3 1 1.377
11 287 0 5 0 0 0 32 3 1 2.133
12 287 0 6 3 0 3 32 3 2 0.748
13 287 0 7 1 1 1 31 3 0 2.032
14 287 0 8 0 0 2 33 3 2 0.671
15 287 0 9 2 1 2 34 3 0 0.782
16 287 0 10 2 0 0 31 3 1 1.066
17 287 0 11 1 0 3 31 3 2 0.732
18 287 0 12 3 1 1 32 3 0 0.769
19 287 0 13 3 1 3 31 3 2 1.46
20 287 0 14 1 1 1 33 3 1 1.237
21 287 0 15 1 0 0 32 3 0 33.853
22 287 0 16 1 0 0 34 3 2 1.129
23 287 0 17 0 0 3 31 3 2 1.145
24 287 0 18 1 0 0 32 3 1 0.816
25 287 0 19 3 0 2 31 3 3 1.181
26 287 0 20 2 0 0 32 3 2 4.072
27 287 0 21 2 0 2 34 3 2 0.818
28 287 0 22 0 1 0 32 3 0 0.792
29 287 0 23 0 0 2 33 3 3 0.856
30 287 0 24 1 0 0 32 3 3 0.887
31 287 0 25 0 1 2 33 3 2 1.078
32 287 0 26 2 0 3 34 3 0 1.272
33 287 0 27 2 1 0 35 3 3 1.353
34 287 0 28 2 0 0 32 3 3 0.713
35 287 0 29 3 0 3 37 3 2 0.767
36 287 0 30 3 1 2 31 3 2 0.931
37 287 0 31 2 1 1 31 3 1 0.864
38 287 0 32 3 1 2 32 3 3 0.832
39 287 0 33 1 0 1 32 3 1 0.879
40 287 0 34 1 1 3 31 3 3 1.051
41 287 0 35 2 1 1 32 3 0 0.628
42 287 0 36 2 0 1 31 3 0 0.658
43 287 0 37 3 1 1 33 3 1 1.057
44 287 0 38 0 0 2 31 3 0 0.931
45 287 0 39 1 0 0 31 3 1 7.583
46 287 0 40 0 0 3 34 3 3 0.788
47 287 0 41 1 0 1 37 3 2 0.92
48 287 0 42 0 1 3 31 3 1 0.621
49 287 0 43 2 0 2 35 3 3 4.199
50 287 0 44 2 1 2 31 3 1 0.44
51 287 0 45 0 1 3 39 3 2 1.047
52 287 0 46 3 0 1 32 3 2 0.786
53 287 0 47 3 0 2 32 3 3 0.782
54 287 0 48 0 0 3 38 3 3 0.774
55 287 0 49 3 0 3 32 3 3 0.827
56 287 0 50 1 1 2 31 3 2 0.984
57 287 0 51 1 1 0 31 3 1 0.796
58 287 0 52 0 1 0 38 3 0 0.906
59 287 0 53 1 0 3 31 3 1 0.983
60 287 0 54 1 1 0 32 3 1 0.911
61 287 0 55 0 0 2 33 3 2 0.963
62 287 0 56 3 0 0 31 3 2 0.873
63 287 0 57 2 1 2 32 3 0 1.041
64 287 0 58 3 1 0 37 3 1 0.314
65 287 0 59 3 1 2 32 3 2 0.278
66 287 0 60 0 1 2 34 3 2 0.283
67 287 0 61 0 1 0 32 3 1 0.511
68 287 0 62 1 1 2 31 3 0 0.452
69 287 0 63 3 1 2 31 3 3 0.627
70 287 1 64 1 0 2 32 3 1 2.491
71 287 1 65 3 1 1 33 3 1 0.989
72 287 1 66 3 0 1 34 3 2 0.682
73 287 1 67 2 1 1 31 3 0 0.481
74 287 1 68 2 1 0 32 3 3 1.182
75 287 1 69 2 1 3 31 3 1 0.723
76 287 1 70 3 0 3 31 3 2 0.801
77 287 1 71 3 0 2 31 3 1 0.749
78 287 1 72 3 1 1 32 3 1 0.778
79 287 1 73 3 1 0 32 3 1 0.581
80 287 1 74 3 1 3 31 3 1 0.671
81 287 1 75 0 0 3 33 3 2 0.703
82 287 1 76 3 1 0 31 3 0 0.42
83 287 1 77 0 0 1 33 3 2 0.541
84 287 1 78 1 1 2 31 3 0 0.249
85 287 1 79 0 1 3 35 3 1 0.367
86 287 1 80 0 1 2 31 3 3 1.144
87 287 1 81 1 1 1 32 3 2 0.302
88 287 1 82 2 1 0 31 3 1 0.602
89 287 1 83 1 1 3 34 3 0 0.195
90 287 1 84 0 1 1 31 3 0 0.507
91 287 1 85 3 0 3 31 3 0 0.981
92 287 1 86 2 0 1 32 3 1 0.523
93 287 1 87 2 1 3 32 3 1 0.495
94 287 1 88 1 0 3 31 3 1 0.637
95 287 1 89 2 1 0 34 3 1 1.042
96 287 1 90 0 1 1 36 3 2 5.458
97 287 1 91 3 0 1 34 3 1 0.215
98 287 1 92 3 1 0 31 3 0 0.294
99 287 1 93 2 1 2 31 3 3 0.202
100 287 1 94 2 0 2 31 3 2 1.052
101 287 1 95 0 0 0 36 3 1 0.53
102 287 1 96 3 1 1 32 3 0 0.574
103 287 1 97 2 0 3 31 3 2 0.218
104 287 1 98 1 1 1 35 3 1 0.342
105 287 1 99 3 1 0 33 3 1 0.604
106 287 1 100 2 0 2 33 3 2 0.071
107 287 1 101 0 1 1 31 3 2 0.218
108 287 1 102 2 1 3 31 3 0 0.353
109 287 1 103 1 0 3 33 3 2 0.245
110 287 1 104 1 0 3 31 3 1 0.068
111 287 1 105 0 1 2 32 3 1 0.309
112 287 1 106 0 1 0 34 3 2 0.177
113 287 1 107 2 0 3 34 3 1 0.275
114 287 1 108 2 1 1 32 3 0 0.184
115 287 1 109 0 1 0 37 3 1 0
116 287 1 110 1 1 3 34 3 2 0.135
117 287 1 111 1 1 3 31 3 3 0.113
118 287 1 112 0 0 2 31 3 0 1.157
119 287 1 113 3 0 3 34 3 1 0.656
120 287 1 114 3 1 3 31 3 2 0.592
121 287 1 115 0 0 2 31 3 1 0.731
122 287 1 116 0 1 3 37 3 2 0.711
123 287 1 117 2 0 3 31 3 2 0.598
124 287 1 118 1 0 0 33 3 1 0.766
125 287 1 119 0 1 2 31 3 1 0.998
126 287 1 120 2 0 1 32 3 1 0.859
127 287 1 121 1 1 3 34 3 2 0.683
128 287 1 122 3 0 1 37 3 1 0.731
129 287 1 123 2 0 0 34 3 1 0.473
130 287 1 124 1 0 1 31 3 0 0.615
131 287 1 125 0 0 1 31 3 1 0.402
132 287 1 126 0 1 0 32 3 3 0.458
133 287 1 127 1 0 3 31 3 2 0.738
134 287 2 128 1 1 0 31 3 1 0.424
135 287 2 129 1 0 3 32 3 2 0.669
136 287 2 130 3 1 3 31 3 0 0.036
137 287 2 131 2 0 0 32 3 2 0.443
138 287 2 132 2 0 1 32 3 2 0.656
139 287 2 133 1 1 3 31 3 1 0.084
140 287 2 134 3 1 3 31 3 0 0.524
141 287 2 135 3 0 3 31 3 1 0.474
142 287 2 136 2 1 3 32 3 2 0.031
143 287 2 137 1 0 2 32 3 2 0.547
144 287 2 138 0 1 1 31 3 1 0.446
145 287 2 139 3 1 3 33 3 3 0.381
146 287 2 140 0 1 1 32 3 3 1.171
147 287 2 141 2 0 0 31 3 2 0.249
148 287 2 142 0 1 1 32 3 0 0.972
149 287 2 143 3 0 0 32 3 1 0.501
150 287 2 144 2 1 2 31 3 0 0.011
151 287 2 145 3 0 2 43 3 1 2.027
152 287 2 146 3 0 2 31 3 1 1.811
153 287 2 147 1 0 1 35 3 1 2.858
154 287 2 148 1 0 2 38 3 2 0.28
155 287 2 149 0 0 2 34 3 0 0.518
156 287 2 150 2 1 2 35 3 1 0.127
157 287 2 151 1 0 1 31 3 1 0.219
158 287 2 152 1 0 0 31 3 1 0.048
159 287 2 153 1 1 0 35 3 2 1.089
160 287 2 154 0 1 0 36 3 1 0.001
161 287 2 155 1 0 2 31 3 0 0.313
162 287 2 156 2 1 3 32 3 2 0.293
163 287 2 157 2 0 2 31 3 2 0.743
164 287 2 158 2 1 1 36 3 0 0.176
165 287 2 159 2 0 3 31 3 1 0.713
166 287 2 160 2 1 1 35 3 0 0.327
167 287 2 161 0 1 0 34 3 3 0.234
168 287 2 162 1 1 1 31 3 3 0.248
169 287 2 163 2 1 1 34 3 2 0.158
170 287 2 164 2 0 1 33 3 2 0.573
171 287 2 165 2 1 3 36 3 0 0.78
172 287 2 166 0 1 2 31 3 1 0.215
173 287 2 167 2 1 0 31 3 1 0.142
174 287 2 168 1 1 0 35 3 2 0.352
175 287 2 169 2 0 1 32 3 1 0.675
176 287 2 170 1 1 2 31 3 0 0.25
177 287 2 171 3 1 3 31 3 0 0.168
178 287 2 172 0 0 0 34 3 1 0.65
179 287 2 173 0 1 0 32 3 2 0.329
180 287 2 174 0 1 2 32 3 1 0.333
181 287 2 175 3 0 1 32 3 1 1.249
182 287 2 176 3 0 0 32 3 1 0.957
183 287 2 177 0 0 3 34 3 1 0.779
184 287 2 178 3 0 1 32 3 2 0.975
185 287 2 179 0 0 0 32 3 2 1.652
186 287 2 180 3 1 2 31 3 2 0.232
187 287 2 181 3 1 3 32 3 1 0.415
188 287 2 182 0 0 3 31 3 0 0.864
189 287 2 183 2 0 1 32 3 2 1.87
190 287 2 184 0 1 3 31 3 2 1.062
191 287 2 185 0 0 1 32 3 2 0.248
192 287 2 186 0 0 1 33 3 0 0.648
193 287 2 187 0 1 1 32 3 0 0.948
194 287 2 188 3 1 1 31 3 2 0.893
195 287 2 189 1 1 0 32 3 2 0.5
196 287 2 190 2 1 1 32 3 2 0.681
197 287 2 191 2 0 2 32 3 2 0.541
198 287 3 192 2 0 0 33 3 2 2.254
199 287 3 193 0 1 2 32 3 2 0.48
200 287 3 194 0 0 0 31 3 1 0.703
201 287 3 195 1 0 0 33 3 0 0.494
202 287 3 196 1 0 0 31 3 2 0.901
203 287 3 197 2 0 1 31 3 0 0.5
204 287 3 198 0 0 3 31 3 1 0.562
205 287 3 199 0 1 1 32 3 2 0.214
206 287 3 200 1 1 0 32 3 2 1.261
207 287 3 201 2 1 3 31 3 1 0.175
208 287 3 202 2 1 2 33 3 2 0.447
209 287 3 203 3 0 3 33 3 0 0.5
210 287 3 204 1 1 1 33 3 1 0.185
211 287 3 205 0 1 3 35 3 1 0.062
212 287 3 206 0 0 0 31 3 2 0.676
213 287 3 207 1 1 2 33 3 0 1.107
214 287 3 208 1 0 1 32 3 0 0.347
215 287 3 209 2 0 2 32 3 1 0.791
216 287 3 210 2 1 0 34 3 2 0.146
217 287 3 211 0 0 0 34 3 2 0.913
218 287 3 212 1 0 3 31 3 1 0.425
219 287 3 213 2 0 2 33 3 1 1.015
220 287 3 214 3 1 0 32 3 2 1.393
221 287 3 215 0 0 1 32 3 2 0.472
222 287 3 216 1 0 1 33 3 1 0.247
223 287 3 217 1 1 0 32 3 1 1.722
224 287 3 218 0 1 3 42 3 2 0.255
225 287 3 219 2 1 0 32 3 3 0.132
226 287 3 220 3 1 0 32 3 3 0.487
227 287 3 221 3 0 1 31 3 1 0.426
228 287 3 222 1 1 1 31 3 2 0.121
229 287 3 223 0 0 2 32 3 1 1.685
230 287 3 224 3 0 0 31 3 0 0.441
231 287 3 225 2 0 3 31 3 1 0.785
232 287 3 226 3 1 0 36 3 1 0.588
233 287 3 227 1 0 3 32 3 2 1.247
234 287 3 228 0 0 2 31 3 2 0.155
235 287 3 229 0 0 3 36 3 2 1.237
236 287 3 230 3 1 2 34 3 2 2.368
237 287 3 231 0 0 3 31 3 3 0.323
238 287 3 232 2 0 1 36 3 1 1.2
239 287 3 233 1 1 2 31 3 0 0.099
240 287 3 234 1 1 3 33 3 1 0.183
241 287 3 235 3 0 2 33 3 1 0.152
242 287 3 236 1 1 3 37 3 2 0.385
243 287 3 237 3 1 0 31 3 2 0.362
244 287 3 238 1 0 2 32 3 2 0.79
245 287 3 239 3 0 0 32 3 1 0.599
246 287 3 240 3 1 1 32 3 0 0.376
247 287 3 241 2 0 2 32 3 1 0.563
248 287 3 242 3 1 1 37 3 2 0.342
249 287 3 243 1 1 2 31 3 1 0.328
250 287 3 244 3 0 2 32 3 1 0.785
251 287 3 245 1 0 2 34 3 2 0.011
252 287 3 246 2 1 1 31 3 3 0.153
253 287 3 247 1 1 1 31 3 2 0.515
254 287 3 248 2 0 1 31 3 2 0.689
255 287 3 249 1 0 1 35 3 2 0.317
256 287 3 250 3 1 1 31 3 1 0.2
257 287 3 251 2 1 2 32 3 0 0.168
258 287 3 252 0 1 3 36 3 0 0.177
259 287 3 253 0 1 0 33 3 3 0.342
260 287 3 254 1 0 3 35 3 3 0.218
261 287 3 255 3 1 2 31 3 3 0.369
262 287 4 256 3 0 0 31 3 1 0.209
263 287 4 257 3 0 0 31 3 3 0.474
264 287 4 258 1 0 2 35 3 3 0.741
265 287 4 259 0 0 1 31 3 3 0.803
266 287 4 260 1 1 0 31 3 3 0.053
267 287 4 261 0 0 3 31 3 3 0.136
268 287 4 262 2 0 3 35 3 2 0.339
269 287 4 263 0 1 3 35 3 2 0.338
270 287 4 264 1 1 3 31 3 3 0.325
271 287 4 265 3 0 0 36 3 -1 0.217
272 287 4 266 1 0 2 31 3 3 2.317
273 287 4 267 2 0 3 32 3 2 1.01
274 287 4 268 0 0 0 32 3 2 0.811
275 287 4 269 1 1 2 32 3 1 0.189
276 287 4 270 0 1 1 31 3 0 0.241
277 287 4 271 2 1 0 41 3 2 0.067
278 287 4 272 1 0 1 31 3 3 0.246
279 287 4 273 3 0 0 31 3 2 0.238
280 287 4 274 3 0 2 31 3 3 0.109
281 287 4 275 2 1 0 31 3 1 0.164
282 287 4 276 0 1 1 33 3 1 0.333
283 287 4 277 3 1 3 35 3 1 0.152
284 287 4 278 3 0 2 33 3 0 0.227
285 287 4 279 1 0 0 31 3 1 0.243
286 287 4 280 3 0 3 32 3 2 0.271
287 287 4 281 2 1 0 31 3 3 0.124
288 287 4 282 2 1 1 31 3 2 0.109
289 287 4 283 3 0 1 32 3 0 0.198
290 287 4 284 1 1 1 31 3 0 0.118
291 287 4 285 2 0 0 34 3 1 0.227
292 287 4 286 2 0 0 32 3 2 0.219
293 287 4 287 0 0 1 33 3 2 0.152
294 287 4 288 1 1 3 33 3 2 0.242
295 287 4 289 0 1 2 31 3 2 0.144
296 287 4 290 1 1 1 31 3 2 0.473
297 287 4 291 2 1 3 31 3 0 0.119
298 287 4 292 2 1 2 32 3 2 0.337
299 287 4 293 0 0 0 33 3 3 0.322
300 287 4 294 2 1 3 31 3 3 0.141
301 287 4 295 3 1 2 36 3 3 0.334
302 287 4 296 2 0 0 32 3 2 0.351
303 287 4 297 1 1 2 36 3 2 0.014
304 287 4 298 3 1 1 32 3 1 0.38
305 287 4 299 1 0 2 31 3 0 0.359
306 287 4 300 0 0 1 33 3 2 0.298
307 287 4 301 0 0 2 31 3 2 0.44
308 287 4 302 2 0 3 32 3 1 0.272
309 287 4 303 1 0 2 31 3 0 0.279
310 287 4 304 3 1 2 31 3 3 0.243
311 287 4 305 3 0 1 31 3 2 0.232
312 287 4 306 3 0 3 33 3 3 0.224
313 287 4 307 2 0 2 36 3 3 0.268
314 287 4 308 3 1 0 33 3 3 0.218
315 287 4 309 0 0 1 36 3 2 0.135
316 287 4 310 0 0 1 32 3 1 0.275
317 287 4 311 2 1 2 34 3 2 0.175
318 287 4 312 0 1 3 31 3 1 0.188
319 287 4 313 3 0 0 31 3 0 0.086
320 287 4 314 0 1 2 34 3 3 0.161
321 287 4 315 3 1 3 35 3 2 0.194
322 287 4 316 2 1 3 37 3 1 0.194
323 287 4 317 0 0 0 39 3 0 0.264
324 287 4 318 3 0 2 33 3 0 0.291
325 287 4 319 3 0 1 31 3 1 0.161
326 290 0 0 3 1 1 34 3 3 0.772
327 290 0 1 0 0 3 32 3 0 0.741
328 290 0 2 1 1 1 32 3 1 0.99
329 290 0 3 3 0 1 36 3 3 1.351
330 290 0 4 1 1 2 32 3 2 1.282
331 290 0 5 2 0 1 36 3 1 0.716
332 290 0 6 1 0 1 38 3 1 0.587
333 290 0 7 1 1 3 32 3 1 1.169
334 290 0 8 3 0 3 31 3 3 0.779
335 290 0 9 3 1 0 31 3 3 0.675
336 290 0 10 1 1 0 32 3 1 0.654
337 290 0 11 3 0 1 38 3 3 0.899
338 290 0 12 3 1 0 31 3 2 1.382
339 290 0 13 2 0 1 31 3 1 0.717
340 290 0 14 3 0 2 31 3 3 0.684
341 290 0 15 2 0 1 36 3 2 0.696
342 290 0 16 0 0 2 31 3 3 0.676
343 290 0 17 3 0 0 33 3 1 1.092
344 290 0 18 2 0 3 45 3 2 0.814
345 290 0 19 3 0 0 33 3 3 0.877
346 290 0 20 1 0 2 33 3 1 0.843
347 290 0 21 0 1 1 39 3 3 0.856
348 290 0 22 0 0 3 32 3 2 0.617
349 290 0 23 0 0 0 31 3 1 0.556
350 290 0 24 1 0 0 36 3 1 0.672
351 290 0 25 2 1 2 33 3 3 0.995
352 290 0 26 2 1 1 33 3 3 1.062
353 290 0 27 2 0 3 32 3 3 0.777
354 290 0 28 0 1 2 33 3 3 0.844
355 290 0 29 1 1 2 35 3 1 0.796
356 290 0 30 3 0 0 33 3 3 0.845
357 290 0 31 1 1 0 31 3 2 0.954
358 290 0 32 0 1 0 31 3 1 0.83
359 290 0 33 0 0 2 31 3 3 0.833
360 290 0 34 1 1 3 36 3 2 0.938
361 290 0 35 0 1 2 37 3 1 0.887
362 290 0 36 3 0 3 31 3 3 0.743
363 290 0 37 2 1 0 33 3 3 1.248
364 290 0 38 0 0 2 31 3 0 0.699
365 290 0 39 2 0 2 31 3 1 0.679
366 290 0 40 0 1 2 37 3 1 0.742
367 290 0 41 2 1 2 31 3 2 0.746
368 290 0 42 2 1 0 35 3 2 0.762
369 290 0 43 2 1 3 32 3 3 0.882
370 290 0 44 3 1 0 39 3 3 1.09
371 290 0 45 1 1 3 32 3 1 0.694
372 290 0 46 0 0 0 35 3 2 1.17
373 290 0 47 1 0 2 34 3 1 0.864
374 290 0 48 0 0 1 31 3 2 0.718
375 290 0 49 3 1 0 33 3 1 0.563
376 290 0 50 3 0 0 31 3 3 0.743
377 290 0 51 3 0 2 35 3 2 0.73
378 290 0 52 2 1 1 33 3 2 0.854
379 290 0 53 0 1 0 37 3 2 0.635
380 290 0 54 2 1 0 31 3 1 0.883
381 290 0 55 3 1 2 31 3 3 0.826
382 290 0 56 3 1 1 31 3 2 1.136
383 290 0 57 3 0 0 34 3 3 1.079
384 290 0 58 2 1 2 32 3 2 0.86
385 290 0 59 3 1 1 34 3 2 0.704
386 290 0 60 2 1 3 31 3 1 0.67
387 290 0 61 0 0 1 32 3 0 0.766
388 290 0 62 0 1 2 31 3 1 0.83
389 290 0 63 0 0 1 34 3 1 0.665
390 290 1 64 3 0 2 31 3 3 0.562
391 290 1 65 1 0 1 31 3 1 0.507
392 290 1 66 3 1 3 36 3 3 0.828
393 290 1 67 0 1 1 39 3 1 0.825
394 290 1 68 0 0 3 32 3 3 0.683
395 290 1 69 2 1 3 31 3 1 0.801
396 290 1 70 1 1 1 31 3 3 0.691
397 290 1 71 0 0 0 37 3 1 0.691
398 290 1 72 1 0 3 34 3 2 0.85
399 290 1 73 0 0 3 33 3 2 0.74
400 290 1 74 1 0 1 41 3 1 0.538
401 290 1 75 3 0 3 35 3 3 0.619
402 290 1 76 2 0 2 31 3 2 0.554
403 290 1 77 1 1 0 31 3 1 0.761
404 290 1 78 0 1 0 31 3 1 0.633
405 290 1 79 1 1 2 32 3 2 0.601
406 290 1 80 2 1 0 34 3 3 0.642
407 290 1 81 0 1 3 33 3 2 0.458
408 290 1 82 2 0 0 34 3 1 0.625
409 290 1 83 3 0 1 34 3 3 0.651
410 290 1 84 0 0 3 33 3 0 0.745
411 290 1 85 1 0 2 32 3 1 0.579
412 290 1 86 3 1 3 35 3 3 0.673
413 290 1 87 3 0 2 32 3 3 0.67
414 290 1 88 2 1 2 31 3 1 0.665
415 290 1 89 1 0 1 36 3 1 0.545
416 290 1 90 0 1 2 32 3 3 0.793
417 290 1 91 0 0 1 35 3 1 0.629
418 290 1 92 2 1 2 33 3 1 0.597
419 290 1 93 2 1 3 32 3 3 0.559
420 290 1 94 1 0 2 33 3 2 0.659
421 290 1 95 3 0 3 31 3 3 0.644
422 290 1 96 3 1 2 33 3 1 0.488
423 290 1 97 1 1 1 32 3 3 0.709
424 290 1 98 3 1 1 34 3 1 0.612
425 290 1 99 2 1 3 31 3 3 0.733
426 290 1 100 0 1 1 31 3 2 0.649
427 290 1 101 0 0 0 31 3 1 0.667
428 290 1 102 1 1 3 34 3 2 0.601
429 290 1 103 2 1 1 32 3 2 0.763
430 290 1 104 2 1 3 38 3 2 0.571
431 290 1 105 2 1 2 36 3 2 0.545
432 290 1 106 1 1 0 33 3 1 0.609
433 290 1 107 0 0 3 31 3 2 0.767
434 290 1 108 3 1 2 34 3 2 0.562
435 290 1 109 3 1 0 35 3 3 0.659
436 290 1 110 2 0 0 35 3 2 0.809
437 290 1 111 3 0 2 32 3 3 0.616
438 290 1 112 2 0 1 41 3 2 0.551
439 290 1 113 1 0 1 35 3 1 0.52
440 290 1 114 3 1 2 33 3 1 0.752
441 290 1 115 3 0 1 31 3 1 0.869
442 290 1 116 3 1 3 31 3 3 0.837
443 290 1 117 1 0 3 34 3 2 0.826
444 290 1 118 1 1 2 34 3 2 0.556
445 290 1 119 2 0 2 31 3 2 1.392
446 290 1 120 1 0 0 32 3 1 0.619
447 290 1 121 2 0 2 31 3 2 0.745
448 290 1 122 2 1 3 33 3 2 0.657
449 290 1 123 0 1 3 33 3 2 0.781
450 290 1 124 0 1 1 32 3 1 0.928
451 290 1 125 3 0 2 32 3 3 0.639
452 290 1 126 1 1 0 33 3 1 0.892
453 290 1 127 3 1 3 31 3 1 0.575
454 290 2 128 2 0 0 34 3 1 0.551
455 290 2 129 3 0 3 32 3 3 0.596
456 290 2 130 1 1 1 32 3 1 0.682
457 290 2 131 1 1 1 32 3 1 0.749
458 290 2 132 0 0 3 33 3 3 0.591
459 290 2 133 0 0 1 34 3 0 1.258
460 290 2 134 3 0 0 31 3 3 0.682
461 290 2 135 3 0 3 31 3 3 0.534
462 290 2 136 1 1 3 31 3 3 0.687
463 290 2 137 0 0 1 31 3 2 0.582
464 290 2 138 0 1 1 40 3 1 0.657
465 290 2 139 3 1 1 33 3 1 0.752
466 290 2 140 1 0 0 34 3 1 0.637
467 290 2 141 2 1 0 32 3 1 0.593
468 290 2 142 2 1 0 36 3 2 0.539
469 290 2 143 2 0 3 32 3 2 0.756
470 290 2 144 2 0 1 38 3 2 0.541
471 290 2 145 2 1 1 33 3 1 0.637
472 290 2 146 1 0 0 31 3 1 0.807
473 290 2 147 1 0 0 31 3 1 0.606
474 290 2 148 2 0 3 34 3 2 0.589
475 290 2 149 2 1 1 33 3 2 0.611
476 290 2 150 0 0 0 32 3 3 0.698
477 290 2 151 1 1 1 33 3 2 1.024
478 290 2 152 1 0 1 32 3 1 0.756
479 290 2 153 1 0 3 32 3 2 0.693
480 290 2 154 1 1 1 31 3 1 0.603
481 290 2 155 2 1 1 32 3 1 0.833
482 290 2 156 2 0 2 33 3 3 1.387
483 290 2 157 0 1 0 34 3 2 0.976
484 290 2 158 0 1 3 32 3 2 0.804
485 290 2 159 0 1 3 31 3 3 1.006
486 290 2 160 3 0 1 31 3 3 0.658
487 290 2 161 0 0 2 32 3 2 0.671
488 290 2 162 3 0 0 31 3 2 1.023
489 290 2 163 2 0 0 35 3 3 0.635
490 290 2 164 1 0 0 34 3 1 0.587
491 290 2 165 2 1 1 35 3 2 0.777
492 290 2 166 1 1 0 32 3 1 0.857
493 290 2 167 0 0 0 31 3 0 0.831
494 290 2 168 0 1 0 31 3 0 0.772
495 290 2 169 0 1 2 32 3 1 0.98
496 290 2 170 1 0 1 31 3 1 0.761
497 290 2 171 2 1 3 32 3 1 0.665
498 290 2 172 3 1 3 34 3 0 0.84
499 290 2 173 1 1 0 32 3 1 0.657
500 290 2 174 0 0 2 31 3 3 0.878
501 290 2 175 0 0 2 33 3 0 0.679
502 290 2 176 0 0 0 31 3 1 0.576
503 290 2 177 0 1 3 31 3 2 0.602
504 290 2 178 1 0 0 32 3 1 0.517
505 290 2 179 1 0 0 32 3 2 0.727
506 290 2 180 3 0 3 33 3 3 0.637
507 290 2 181 3 1 1 32 3 1 0.986
508 290 2 182 3 1 2 36 3 3 0.637
509 290 2 183 2 0 0 31 3 2 0.723
510 290 2 184 3 1 1 31 3 3 0.916
511 290 2 185 1 1 2 35 3 2 0.606
512 290 2 186 3 0 2 31 3 3 0.544
513 290 2 187 2 0 3 31 3 2 0.785
514 290 2 188 3 1 0 35 3 3 1
515 290 2 189 2 0 0 33 3 1 0.641
516 290 2 190 3 1 2 32 3 2 0.529
517 290 2 191 2 0 3 31 3 3 0.574
518 290 3 192 2 0 1 31 3 1 0.987
519 290 3 193 0 0 2 36 3 3 0.544
520 290 3 194 3 1 3 34 3 3 0.812
521 290 3 195 2 1 0 33 3 3 24.546
522 290 3 196 0 0 1 31 3 1 0.531
523 290 3 197 1 0 0 31 3 1 0.505
524 290 3 198 3 0 0 31 3 3 0.627
525 290 3 199 0 0 3 31 3 2 0.73
526 290 3 200 1 0 2 31 3 1 0.496
527 290 3 201 1 0 2 32 3 1 0.53
528 290 3 202 2 0 2 33 3 1 0.5
529 290 3 203 3 0 2 32 3 3 0.595
530 290 3 204 2 0 1 33 3 2 0.506
531 290 3 205 0 1 1 35 3 2 0.595
532 290 3 206 0 1 1 32 3 1 0.573
533 290 3 207 2 1 2 36 3 3 0.519
534 290 3 208 0 1 0 31 3 1 0.651
535 290 3 209 0 0 2 34 3 2 0.62
536 290 3 210 3 1 3 31 3 2 0.523
537 290 3 211 0 1 0 31 3 1 0.647
538 290 3 212 1 0 2 31 3 2 0.6
539 290 3 213 1 1 0 35 3 1 0.85
540 290 3 214 2 0 3 32 3 2 0.712
541 290 3 215 1 1 3 34 3 3 0.649
542 290 3 216 0 1 0 33 3 3 0.593
543 290 3 217 2 0 0 32 3 2 0.708
544 290 3 218 2 1 0 34 3 2 0.79
545 290 3 219 2 0 3 33 3 3 0.63
546 290 3 220 3 1 3 31 3 3 0.719
547 290 3 221 2 0 1 38 3 2 0.546
548 290 3 222 1 0 2 31 3 2 0.995
549 290 3 223 1 1 1 33 3 1 0.654
550 290 3 224 3 1 2 32 3 1 0.57
551 290 3 225 1 0 3 32 3 3 0.557
552 290 3 226 0 1 0 32 3 1 0.6
553 290 3 227 2 1 2 31 3 1 0.505
554 290 3 228 0 1 3 37 3 3 0.685
555 290 3 229 1 0 3 31 3 2 0.597
556 290 3 230 3 1 1 31 3 1 0.558
557 290 3 231 3 1 0 32 3 3 0.52
558 290 3 232 1 1 1 33 3 1 0.641
559 290 3 233 1 1 3 31 3 1 0.541
560 290 3 234 2 0 0 31 3 2 0.686
561 290 3 235 1 0 3 36 3 3 0.593
562 290 3 236 3 1 2 35 3 2 0.507
563 290 3 237 0 1 2 39 3 1 0.551
564 290 3 238 0 0 1 41 3 2 0.539
565 290 3 239 0 1 1 46 3 1 0.519
566 290 3 240 3 0 1 32 3 3 0.676
567 290 3 241 1 1 2 31 3 3 0.549
568 290 3 242 0 0 3 34 3 3 0.594
569 290 3 243 3 0 0 34 3 2 0.861
570 290 3 244 1 1 2 32 3 1 0.629
571 290 3 245 2 1 1 31 3 1 0.394
572 290 3 246 3 0 2 32 3 3 0.596
573 290 3 247 3 1 1 37 3 3 0.73
574 290 3 248 1 1 2 33 3 2 0.707
575 290 3 249 0 0 0 36 3 3 0.594
576 290 3 250 2 0 1 35 3 2 0.565
577 290 3 251 3 1 3 33 3 1 0.572
578 290 3 252 2 1 0 37 3 1 0.847
579 290 3 253 2 1 2 32 3 2 0.407
580 290 3 254 2 0 3 31 3 1 1.165
581 290 3 255 1 1 0 31 3 1 0.739
582 290 4 256 0 0 0 35 3 0 1.123
583 290 4 257 3 0 3 37 3 3 0.528
584 290 4 258 0 1 0 31 3 2 0.728
585 290 4 259 2 0 1 31 3 2 0.558
586 290 4 260 1 1 1 31 3 1 0.598
587 290 4 261 1 0 1 33 3 1 0.509
588 290 4 262 0 1 1 35 3 1 0.654
589 290 4 263 3 1 3 32 3 1 0.501
590 290 4 264 1 0 3 41 3 2 0.819
591 290 4 265 3 0 1 31 3 3 0.613
592 290 4 266 0 0 2 31 3 3 0.62
593 290 4 267 3 0 1 33 3 1 0.558
594 290 4 268 3 0 3 31 3 3 0.539
595 290 4 269 1 0 3 31 3 3 0.556
596 290 4 270 1 1 2 36 3 2 0.59
597 290 4 271 0 1 3 34 3 1 0.329
598 290 4 272 1 1 3 32 3 3 0.372
599 290 4 273 1 1 0 32 3 1 0.381
600 290 4 274 2 0 2 32 3 2 0.556
601 290 4 275 0 1 1 31 3 1 0.708
602 290 4 276 3 1 0 31 3 2 0.473
603 290 4 277 1 0 3 35 3 2 0.808
604 290 4 278 0 1 3 31 3 3 0.49
605 290 4 279 3 1 1 31 3 3 0.727
606 290 4 280 2 1 0 33 3 3 1.057
607 290 4 281 3 1 0 35 3 3 0.721
608 290 4 282 0 0 0 32 3 2 0.796
609 290 4 283 3 0 2 32 3 3 0.64
610 290 4 284 3 1 2 39 3 3 0.548
611 290 4 285 0 1 3 37 3 3 0.548
612 290 4 286 0 1 2 31 3 2 0.655
613 290 4 287 2 1 3 32 3 1 0.495
614 290 4 288 2 1 2 32 3 3 0.412
615 290 4 289 2 0 2 31 3 2 1.077
616 290 4 290 0 1 2 31 3 1 0.482
617 290 4 291 2 1 1 33 3 2 0.76
618 290 4 292 0 0 1 36 3 3 0.625
619 290 4 293 3 1 2 31 3 3 0.634
620 290 4 294 1 1 3 33 3 2 0.351
621 290 4 295 0 0 1 31 3 2 0.57
622 290 4 296 2 0 2 31 3 2 0.654
623 290 4 297 0 1 3 31 3 3 0.474
624 290 4 298 2 0 0 31 3 3 0.777
625 290 4 299 1 0 3 35 3 2 1.076
626 290 4 300 1 0 2 32 3 1 0.742
627 290 4 301 0 0 3 33 3 2 0.872
628 290 4 302 1 0 1 35 3 1 0.769
629 290 4 303 1 1 2 35 3 1 0.569
630 290 4 304 3 0 1 34 3 3 0.801
631 290 4 305 2 1 1 31 3 1 0.639
632 290 4 306 2 0 3 32 3 3 0.592
633 290 4 307 2 1 3 32 3 2 0.522
634 290 4 308 0 0 2 31 3 3 0.5
635 290 4 309 1 0 1 32 3 1 0.562
636 290 4 310 3 0 1 32 3 3 0.731
637 290 4 311 1 0 0 36 3 3 0.742
638 290 4 312 2 0 2 33 3 2 0.555
639 290 4 313 3 1 0 32 3 3 0.595
640 290 4 314 0 1 2 33 3 3 0.577
641 290 4 315 1 0 2 32 3 3 0.564
642 290 4 316 2 0 0 32 3 2 1.113
643 290 4 317 3 0 3 31 3 3 0.494
644 290 4 318 3 0 0 37 3 3 0.545
645 290 4 319 1 1 3 31 3 3 0.624
646 291 0 0 3 1 3 31 3 3 1.12
647 291 0 1 2 0 2 32 3 2 1.026
648 291 0 2 3 0 1 32 3 3 1.176
649 291 0 3 3 1 2 32 3 1 1.262
650 291 0 4 2 1 3 32 3 2 1.078
651 291 0 5 2 1 0 31 3 3 1.024
652 291 0 6 0 1 3 35 3 1 0.959
653 291 0 7 1 1 0 31 3 1 0.865
654 291 0 8 1 0 0 32 3 1 0.765
655 291 0 9 1 1 3 35 3 2 0.835
656 291 0 10 0 0 1 31 3 1 0.739
657 291 0 11 0 1 0 35 3 3 0.861
658 291 0 12 2 1 2 31 3 3 0.882
659 291 0 13 3 1 0 31 3 3 0.887
660 291 0 14 3 1 3 34 3 3 0.777
661 291 0 15 0 0 0 32 3 1 0.935
662 291 0 16 2 1 3 31 3 2 0.986
663 291 0 17 0 0 3 35 3 2 53.857
664 291 0 18 2 0 2 31 3 2 0.901
665 291 0 19 3 1 1 34 3 3 0.998
666 291 0 20 1 1 0 35 3 1 3.859
667 291 0 21 0 1 2 32 3 1 1.13
668 291 0 22 3 0 0 31 3 2 0.863
669 291 0 23 1 1 0 33 3 3 0.885
670 291 0 24 0 0 1 32 3 0 0.755
671 291 0 25 2 1 0 35 3 1 5.225
672 291 0 26 3 1 3 35 3 2 0.562
673 291 0 27 2 1 0 35 3 1 1.859
674 291 0 28 3 1 2 36 3 2 0.436
675 291 0 29 3 1 2 33 3 3 0.825
676 291 0 30 1 1 3 36 3 2 0.908
677 291 0 31 2 1 2 31 3 2 1.184
678 291 0 32 0 1 0 32 3 1 0.902
679 291 0 33 1 1 1 34 3 1 1.098
680 291 0 34 2 1 3 32 3 2 0.98
681 291 0 35 0 0 0 34 3 0 0.812
682 291 0 36 3 1 1 32 3 0 6.384
683 291 0 37 2 1 2 32 3 1 1.215
684 291 0 38 2 1 1 31 3 2 0.696
685 291 0 39 1 0 1 31 3 2 1.77
686 291 0 40 2 1 3 31 3 1 0.527
687 291 0 41 1 1 3 31 3 2 0.913
688 291 0 42 1 0 2 31 3 2 1.021
689 291 0 43 3 1 2 33 3 3 1.069
690 291 0 44 0 0 2 31 3 0 0.929
691 291 0 45 0 0 0 31 3 0 5.674
692 291 0 46 2 1 0 31 3 1 1.28
693 291 0 47 3 0 3 33 3 1 2.352
694 291 0 48 1 0 1 34 3 0 0.122
695 291 0 49 3 1 0 36 3 3 1.065
696 291 0 50 3 0 3 34 3 3 2.51
697 291 0 51 3 0 2 36 3 3 0.719
698 291 0 52 1 0 0 33 3 2 1.471
699 291 0 53 3 0 1 32 3 1 0.36
700 291 0 54 3 1 0 34 3 2 0.863
701 291 0 55 0 0 2 31 3 0 0.703
702 291 0 56 1 0 2 33 3 1 1.92
703 291 0 57 3 1 0 33 3 2 0.668
704 291 0 58 3 1 0 31 3 2 2.52
705 291 0 59 0 1 1 31 3 0 0.579
706 291 0 60 0 0 0 32 3 1 0.52
707 291 0 61 1 0 0 35 3 0 0.547
708 291 0 62 3 1 2 37 3 2 0.58
709 291 0 63 1 0 2 34 3 1 1.453
710 291 1 64 3 1 3 31 3 3 0.946
711 291 1 65 3 0 0 31 3 1 1.754
712 291 1 66 1 0 1 31 3 0 5.866
713 291 1 67 0 0 1 31 3 2 0.837
714 291 1 68 2 0 1 37 3 2 6.821
715 291 1 69 2 1 3 32 3 1 2.818
716 291 1 70 0 1 0 31 3 2 0.881
717 291 1 71 3 0 0 39 3 1 0.016
718 291 1 72 3 1 0 31 3 0 2.564
719 291 1 73 0 1 2 33 3 2 7.468
720 291 1 74 0 0 2 32 3 1 1.263
721 291 1 75 1 0 0 35 3 2 4.08
722 291 1 76 1 0 1 33 3 1 0.716
723 291 1 77 2 0 3 35 3 1 1.869
724 291 1 78 2 0 1 32 3 2 2.504
725 291 1 79 3 1 1 33 3 2 2.079
726 291 1 80 2 0 0 33 3 2 0.946
727 291 1 81 2 1 2 32 3 0 0.593
728 291 1 82 0 0 3 31 3 1 0.906
729 291 1 83 3 1 3 34 3 1 2.254
730 291 1 84 3 0 0 31 3 1 21.067
731 291 1 85 0 0 0 32 3 2 2.662
732 291 1 86 0 1 3 32 3 1 0.539
733 291 1 87 3 1 3 31 3 0 0.668
734 291 1 88 0 0 0 31 3 3 1.266
735 291 1 89 1 0 3 31 3 2 0.964
736 291 1 90 2 1 2 31 3 3 1.142
737 291 1 91 1 0 1 34 3 2 0.634
738 291 1 92 1 1 0 33 3 1 1.128
739 291 1 93 3 1 3 32 3 0 0.193
740 291 1 94 3 0 1 32 3 2 0.632
741 291 1 95 1 1 3 38 3 1 0.565
742 291 1 96 1 1 2 31 3 3 4.299
743 291 1 97 1 0 3 33 3 2 3.967
744 291 1 98 2 1 3 32 3 1 0.501
745 291 1 99 2 1 0 31 3 2 0.136
746 291 1 100 2 0 3 31 3 3 0.382
747 291 1 101 0 1 0 32 3 0 0.421
748 291 1 102 2 0 1 34 3 1 0.043
749 291 1 103 0 0 1 34 3 2 0.439
750 291 1 104 1 1 2 32 3 3 0.876
751 291 1 105 2 0 1 35 3 2 0.394
752 291 1 106 0 0 1 31 3 1 0.727
753 291 1 107 1 1 0 31 3 2 1.265
754 291 1 108 2 0 1 31 3 1 0.994
755 291 1 109 0 1 1 34 3 3 2.067
756 291 1 110 0 1 2 31 3 2 0.317
757 291 1 111 2 1 2 32 3 1 0.454
758 291 1 112 1 0 0 31 3 1 10.052
759 291 1 113 3 0 3 31 3 1 8.598
760 291 1 114 0 0 1 31 3 2 0.385
761 291 1 115 2 0 0 31 3 2 8.129
762 291 1 116 2 0 3 38 3 2 2.232
763 291 1 117 1 1 3 34 3 3 2.729
764 291 1 118 0 1 2 33 3 2 0.524
765 291 1 119 1 0 3 33 3 1 0.999
766 291 1 120 3 0 2 37 3 2 1.213
767 291 1 121 0 1 1 31 3 1 0.39
768 291 1 122 3 0 1 31 3 2 0.326
769 291 1 123 1 0 2 32 3 3 0.296
770 291 1 124 0 0 3 32 3 0 0.923
771 291 1 125 3 0 1 37 3 3 1.349
772 291 1 126 1 1 1 31 3 2 1.093
773 291 1 127 2 1 0 38 3 2 0.962
774 291 2 128 1 1 2 31 3 2 1.13
775 291 2 129 0 0 3 33 3 0 1.2
776 291 2 130 3 1 3 32 3 3 1.126
777 291 2 131 1 1 1 31 3 1 1.576
778 291 2 132 0 1 1 32 3 1 0.864
779 291 2 133 2 0 0 33 3 2 0.431
780 291 2 134 0 1 1 32 3 0 0.72
781 291 2 135 2 1 1 31 3 2 0.887
782 291 2 136 0 1 1 40 3 0 0.823
783 291 2 137 0 1 0 35 3 0 0.763
784 291 2 138 1 1 3 32 3 1 0.864
785 291 2 139 2 0 0 32 3 2 1.26
786 291 2 140 0 0 1 33 3 1 0.937
787 291 2 141 2 0 3 33 3 1 74.006
788 291 2 142 0 1 2 31 3 0 1.168
789 291 2 143 3 0 1 31 3 2 0.72
790 291 2 144 3 0 1 32 3 1 1.236
791 291 2 145 1 0 0 35 3 0 1.845
792 291 2 146 0 0 3 32 3 2 1.042
793 291 2 147 2 0 2 31 3 1 0.714
794 291 2 148 0 1 2 32 3 0 0.437
795 291 2 149 1 0 3 31 3 2 0.592
796 291 2 150 2 1 2 32 3 2 0.991
797 291 2 151 0 1 0 33 3 2 0.892
798 291 2 152 3 0 2 31 3 3 1.178
799 291 2 153 1 0 2 39 3 2 1.339
800 291 2 154 0 1 2 49 3 -1 61.231
801 291 2 155 0 0 3 31 3 2 0.828
802 291 2 156 1 1 1 35 3 1 0.579
803 291 2 157 1 1 0 33 3 0 0.752
804 291 2 158 1 0 2 35 3 2 0.754
805 291 2 159 1 1 2 32 3 1 2.267
806 291 2 160 3 0 2 32 3 2 1.717
807 291 2 161 1 1 1 33 3 1 3.995
808 291 2 162 1 0 0 31 3 1 3.031
809 291 2 163 2 0 2 31 3 0 1.716
810 291 2 164 1 0 3 33 3 1 0.325
811 291 2 165 3 1 2 32 3 2 0.73
812 291 2 166 1 1 0 31 3 3 0.18
813 291 2 167 0 1 2 34 3 1 0.61
814 291 2 168 2 1 0 32 3 2 0.865
815 291 2 169 0 1 1 35 3 0 2.355
816 291 2 170 3 1 1 31 3 1 1.376
817 291 2 171 2 0 1 31 3 0 1.9
818 291 2 172 3 0 3 31 3 1 0.55
819 291 2 173 3 0 0 33 3 1 0.864
820 291 2 174 1 0 0 32 3 2 0.367
821 291 2 175 1 1 0 33 3 2 1.671
822 291 2 176 1 1 2 35 3 0 1.935
823 291 2 177 0 0 3 33 3 2 0.296
824 291 2 178 1 0 1 33 3 2 2.075
825 291 2 179 3 0 0 31 3 0 0.735
826 291 2 180 1 0 3 31 3 2 0.306
827 291 2 181 3 0 3 32 3 1 1.029
828 291 2 182 0 0 2 33 3 0 2.526
829 291 2 183 1 0 2 34 3 0 1.102
830 291 2 184 3 1 0 31 3 2 0.922
831 291 2 185 2 1 3 37 3 0 0.542
832 291 2 186 2 0 3 32 3 2 0.936
833 291 2 187 1 1 3 31 3 3 1.271
834 291 2 188 2 0 0 33 3 2 1.336
835 291 2 189 3 1 1 33 3 1 1.417
836 291 2 190 2 1 1 36 3 2 1.162
837 291 2 191 0 1 3 33 3 2 2.48
838 291 3 192 1 0 1 41 3 1 0.747
839 291 3 193 0 1 0 33 3 2 0.834
840 291 3 194 2 0 1 31 3 1 1.143
841 291 3 195 0 1 3 31 3 2 0.323
842 291 3 196 2 1 0 35 3 0 0.684
843 291 3 197 1 0 1 32 3 3 0.161
844 291 3 198 1 1 2 33 3 2 0.256
845 291 3 199 3 0 0 31 3 3 1.221
846 291 3 200 0 0 1 41 3 2 0.994
847 291 3 201 0 1 3 32 3 3 1.747
848 291 3 202 3 0 0 31 3 0 1.09
849 291 3 203 0 1 3 32 3 2 0.576
850 291 3 204 2 0 1 46 3 2 0.308
851 291 3 205 1 0 3 33 3 1 0.867
852 291 3 206 3 0 2 31 3 3 0.99
853 291 3 207 0 1 0 32 3 1 3.115
854 291 3 208 2 1 0 32 3 2 3.456
855 291 3 209 0 1 3 31 3 1 0.709
856 291 3 210 2 0 1 33 3 2 1.001
857 291 3 211 3 1 2 31 3 1 2.678
858 291 3 212 2 0 0 31 3 3 2.212
859 291 3 213 2 0 0 31 3 2 3.81
860 291 3 214 1 0 3 31 3 2 2.772
861 291 3 215 0 1 2 33 3 1 2.118
862 291 3 216 1 0 3 31 3 2 3.544
863 291 3 217 3 1 1 34 3 3 1.037
864 291 3 218 0 0 0 33 3 3 4.066
865 291 3 219 3 1 2 34 3 2 0.501
866 291 3 220 3 1 0 32 3 1 2.264
867 291 3 221 0 0 1 31 3 3 3.124
868 291 3 222 3 0 3 33 3 3 3.762
869 291 3 223 0 0 2 31 3 2 30.311
870 291 3 224 2 1 3 32 3 1 0.636
871 291 3 225 2 0 2 32 3 3 0.835
872 291 3 226 2 0 3 32 3 2 1.987
873 291 3 227 2 0 3 31 3 2 1.718
874 291 3 228 0 1 3 32 3 1 0.602
875 291 3 229 0 0 2 31 3 0 4.818
876 291 3 230 1 0 0 33 3 1 1.615
877 291 3 231 2 0 2 32 3 2 4.08
878 291 3 232 2 0 3 31 3 2 5.128
879 291 3 233 3 0 1 31 3 0 3.147
880 291 3 234 3 0 3 31 3 2 1.656
881 291 3 235 3 0 2 32 3 1 1.083
882 291 3 236 3 1 0 38 3 1 7.385
883 291 3 237 2 0 2 32 3 0 0.606
884 291 3 238 0 0 3 33 3 3 1.318
885 291 3 239 1 1 1 36 3 2 0.555
886 291 3 240 2 1 1 33 3 1 0.316
887 291 3 241 2 0 0 32 3 2 2.03
888 291 3 242 2 1 3 32 3 1 0.502
889 291 3 243 2 0 3 32 3 2 2.37
890 291 3 244 0 1 1 35 3 2 1.534
891 291 3 245 0 0 2 32 3 1 3.781
892 291 3 246 3 1 1 34 3 2 0.514
893 291 3 247 2 0 1 33 3 2 14.59
894 291 3 248 0 1 3 31 3 2 4.9
895 291 3 249 0 0 0 32 3 3 0.466
896 291 3 250 3 1 3 37 3 2 2.422
897 291 3 251 3 0 2 33 3 3 1.453
898 291 3 252 1 0 2 43 3 3 0.563
899 291 3 253 2 0 2 31 3 2 2.269
900 291 3 254 0 1 1 32 3 1 0.701
901 291 3 255 2 1 2 31 3 2 0.872
902 291 4 256 2 1 1 31 3 2 0.454
903 291 4 257 3 0 2 33 3 2 7.406
904 291 4 258 0 0 2 33 3 1 2.066
905 291 4 259 1 0 2 36 3 2 2.07
906 291 4 260 2 1 1 33 3 1 0.848
907 291 4 261 3 0 1 35 3 3 3.376
908 291 4 262 1 1 3 34 3 2 4.007
909 291 4 263 0 0 2 33 3 3 0.694
910 291 4 264 1 0 3 34 3 1 3.835
911 291 4 265 3 0 2 31 3 2 13.948
912 291 4 266 3 0 2 33 3 1 2.854
913 291 4 267 2 1 2 32 3 3 0.597
914 291 4 268 2 1 2 33 3 2 1.092
915 291 4 269 2 0 0 32 3 1 1.975
916 291 4 270 3 1 2 31 3 2 5.893
917 291 4 271 3 0 3 31 3 3 0.864
918 291 4 272 0 0 3 31 3 0 0.892
919 291 4 273 3 0 0 32 3 1 24.839
920 291 4 274 1 1 2 34 3 3 1.329
921 291 4 275 1 1 0 33 3 2 0.981
922 291 4 276 1 1 2 31 3 1 1.111
923 291 4 277 1 1 3 32 3 3 1.824
924 291 4 278 3 0 0 31 3 2 1.437
925 291 4 279 0 0 3 31 3 1 2.343
926 291 4 280 1 1 1 35 3 0 0.008
927 291 4 281 1 1 3 31 3 2 2.524
928 291 4 282 1 1 1 31 3 3 7.19
929 291 4 283 0 0 1 33 3 2 0.035
930 291 4 284 3 0 1 41 3 1 0.576
931 291 4 285 0 0 0 35 3 2 1.177
932 291 4 286 3 1 2 32 3 1 0.915
933 291 4 287 1 0 1 33 3 1 1.137
934 291 4 288 2 0 2 32 3 2 1.554
935 291 4 289 3 1 1 33 3 1 1.244
936 291 4 290 1 0 0 31 3 2 0.669
937 291 4 291 2 1 1 31 3 2 22.17
938 291 4 292 3 0 3 33 3 3 0.138
939 291 4 293 1 1 0 31 3 0 0.229
940 291 4 294 1 0 2 33 3 2 0.443
941 291 4 295 3 1 3 31 3 1 1.024
942 291 4 296 0 0 0 32 3 3 1.129
943 291 4 297 3 1 0 32 3 2 0.453
944 291 4 298 0 1 2 38 3 1 1.337
945 291 4 299 2 0 3 33 3 0 1.735
946 291 4 300 2 0 2 40 3 2 0.743
947 291 4 301 2 1 0 35 3 2 0.333
948 291 4 302 2 0 0 31 3 3 0.204
949 291 4 303 1 1 2 31 3 1 0.312
950 291 4 304 0 0 2 31 3 0 3.006
951 291 4 305 2 1 1 34 3 2 3.059
952 291 4 306 3 1 1 36 3 1 0.486
953 291 4 307 1 0 1 36 3 0 0.45
954 291 4 308 1 1 2 36 3 3 0.199
955 291 4 309 2 1 3 37 3 2 0.1
956 291 4 310 0 1 0 32 3 1 0.626
957 291 4 311 1 1 1 31 3 1 0.832
958 291 4 312 1 1 1 35 3 0 2.563
959 291 4 313 3 0 3 35 3 1 0.629
960 291 4 314 0 1 1 37 3 3 1.667
961 291 4 315 2 1 1 37 3 2 1.195
962 291 4 316 0 1 0 32 3 1 2.961
963 291 4 317 2 1 1 31 3 0 0.187
964 291 4 318 0 1 3 31 3 1 1.065
965 291 4 319 3 1 1 35 3 2 0.023
966 293 0 0 2 0 3 33 3 3 1.683
967 293 0 1 3 0 3 32 3 2 1.247
968 293 0 2 2 0 0 31 3 3 1.33
969 293 0 3 3 0 0 32 3 1 1.195
970 293 0 4 1 1 2 34 3 1 0.559
971 293 0 5 3 0 0 31 3 3 1.136
972 293 0 6 1 1 1 31 3 2 0.834
973 293 0 7 3 0 2 35 3 3 1.077
974 293 0 8 0 0 2 33 3 3 0.659
975 293 0 9 1 0 2 36 3 2 0.884
976 293 0 10 0 1 1 33 3 1 1.099
977 293 0 11 3 0 3 34 3 2 1.076
978 293 0 12 2 0 0 34 3 0 0.957
979 293 0 13 0 1 0 33 3 2 1.17
980 293 0 14 2 1 1 31 3 2 0.647
981 293 0 15 3 1 2 33 3 3 0.651
982 293 0 16 1 0 3 48 3 3 0.953
983 293 0 17 2 0 3 34 3 2 0.734
984 293 0 18 3 1 0 31 3 2 0.855
985 293 0 19 1 1 3 34 3 1 0.543
986 293 0 20 1 1 2 36 3 1 0.447
987 293 0 21 1 1 3 32 3 1 0.81
988 293 0 22 2 0 2 31 3 1 0.53
989 293 0 23 2 0 1 35 3 2 0.959
990 293 0 24 2 1 2 31 3 2 0.76
991 293 0 25 2 0 1 31 3 1 1.017
992 293 0 26 0 0 2 37 3 1 0.629
993 293 0 27 1 1 0 33 3 2 0.749
994 293 0 28 0 1 1 33 3 0 0.474
995 293 0 29 2 0 2 35 3 2 0.725
996 293 0 30 0 0 0 37 3 3 0.976
997 293 0 31 0 1 2 36 3 2 0.724
998 293 0 32 2 1 2 35 3 3 0.825
999 293 0 33 0 0 1 34 3 0 0.644
1000 293 0 34 2 1 0 37 3 2 0.816
1001 293 0 35 0 0 2 32 3 3 0.84
1002 293 0 36 3 0 3 31 3 3 0.642
1003 293 0 37 0 1 3 33 3 3 1.061
1004 293 0 38 0 0 0 33 3 2 1.016
1005 293 0 39 2 1 2 31 3 2 1.874
1006 293 0 40 0 0 0 31 3 3 0.884
1007 293 0 41 3 1 0 31 3 1 0.867
1008 293 0 42 2 0 0 32 3 2 1.013
1009 293 0 43 2 0 1 32 3 0 1.141
1010 293 0 44 2 1 3 31 3 3 0.667
1011 293 0 45 2 1 3 36 3 2 0.658
1012 293 0 46 1 0 2 35 3 0 0.783
1013 293 0 47 1 1 0 34 3 2 0.906
1014 293 0 48 0 0 1 33 3 3 0.746
1015 293 0 49 3 0 2 35 3 3 0.671
1016 293 0 50 3 0 3 36 3 3 0.564
1017 293 0 51 2 0 2 37 3 3 0.653
1018 293 0 52 1 0 1 34 3 1 0.613
1019 293 0 53 3 1 2 31 3 3 0.594
1020 293 0 54 1 1 0 36 3 2 0.841
1021 293 0 55 1 1 2 35 3 1 0.641
1022 293 0 56 3 1 2 34 3 3 0.437
1023 293 0 57 1 1 1 32 3 0 0.697
1024 293 0 58 0 1 3 33 3 0 0.655
1025 293 0 59 2 1 3 31 3 1 0.498
1026 293 0 60 0 1 3 31 3 0 0.455
1027 293 0 61 0 0 1 37 3 0 0.676
1028 293 0 62 3 1 3 31 3 3 0.71
1029 293 0 63 0 0 1 32 3 3 0.897
1030 293 1 64 3 0 1 34 3 3 0.728
1031 293 1 65 3 0 2 32 3 3 0.522
1032 293 1 66 1 0 2 31 3 1 0.492
1033 293 1 67 3 0 1 32 3 3 0.495
1034 293 1 68 3 0 0 31 3 3 0.522
1035 293 1 69 3 0 3 31 3 3 0.563
1036 293 1 70 0 1 1 32 3 0 0.803
1037 293 1 71 2 1 2 32 3 2 0.633
1038 293 1 72 0 1 0 31 3 0 0.453
1039 293 1 73 2 0 2 33 3 2 0.617
1040 293 1 74 3 0 1 31 3 3 0.48
1041 293 1 75 2 1 2 31 3 2 0.674
1042 293 1 76 2 0 3 32 3 3 0.607
1043 293 1 77 2 0 3 34 3 2 0.714
1044 293 1 78 2 1 0 36 3 1 0.715
1045 293 1 79 2 1 0 31 3 2 0.58
1046 293 1 80 3 0 1 33 3 1 0.708
1047 293 1 81 3 1 1 31 3 3 0.562
1048 293 1 82 0 1 1 31 3 0 0.425
1049 293 1 83 0 1 3 35 3 3 0.781
1050 293 1 84 1 0 1 33 3 1 0.633
1051 293 1 85 2 1 2 35 3 3 0.71
1052 293 1 86 1 0 3 31 3 3 0.925
1053 293 1 87 1 1 2 31 3 2 0.69
1054 293 1 88 3 1 1 36 3 3 0.512
1055 293 1 89 0 0 1 37 3 3 0.787
1056 293 1 90 1 1 1 33 3 1 0.477
1057 293 1 91 1 0 2 34 3 0 0.656
1058 293 1 92 0 1 2 32 3 2 0.832
1059 293 1 93 0 1 3 31 3 3 0.769
1060 293 1 94 3 1 1 33 3 3 0.553
1061 293 1 95 3 1 2 32 3 3 0.473
1062 293 1 96 2 0 0 32 3 2 0.916
1063 293 1 97 0 1 2 37 3 0 0.623
1064 293 1 98 0 1 0 38 3 2 0.851
1065 293 1 99 1 0 2 31 3 3 0.645
1066 293 1 100 1 0 2 31 3 1 1.102
1067 293 1 101 2 0 1 31 3 3 0.851
1068 293 1 102 1 0 3 31 3 2 0.677
1069 293 1 103 1 0 3 32 3 3 0.709
1070 293 1 104 1 1 1 31 3 0 1.714
1071 293 1 105 1 1 0 32 3 2 1.011
1072 293 1 106 0 1 2 32 3 0 0.478
1073 293 1 107 0 0 3 31 3 3 0.93
1074 293 1 108 1 0 0 31 3 1 0.929
1075 293 1 109 0 0 0 38 3 1 0.741
1076 293 1 110 3 1 3 31 3 2 0.921
1077 293 1 111 2 0 1 34 3 2 0.76
1078 293 1 112 3 1 0 31 3 0 0.656
1079 293 1 113 3 1 1 31 3 3 0.503
1080 293 1 114 1 1 1 34 3 1 0.512
1081 293 1 115 1 0 0 31 3 0 0.491
1082 293 1 116 2 1 3 40 3 3 0.656
1083 293 1 117 3 0 0 31 3 3 0.696
1084 293 1 118 2 1 0 32 3 3 0.674
1085 293 1 119 3 1 0 32 3 0 0.649
1086 293 1 120 3 0 2 34 3 3 0.658
1087 293 1 121 2 0 0 31 3 3 0.743
1088 293 1 122 0 1 0 32 3 0 1.187
1089 293 1 123 3 0 1 37 3 3 0.598
1090 293 1 124 0 1 0 32 3 0 0.532
1091 293 1 125 1 1 2 32 3 1 0.74
1092 293 1 126 1 1 3 32 3 1 0.469
1093 293 1 127 1 0 0 32 3 3 1.096
1094 293 2 128 0 1 2 34 3 0 0.811
1095 293 2 129 0 1 3 34 3 0 0.418
1096 293 2 130 1 0 1 32 3 3 1.071
1097 293 2 131 2 1 1 34 3 1 0.391
1098 293 2 132 0 1 3 31 3 0 0.44
1099 293 2 133 3 1 3 32 3 3 0.411
1100 293 2 134 3 0 2 31 3 3 0.45
1101 293 2 135 1 1 3 31 3 1 0.365
1102 293 2 136 2 0 3 32 3 3 0.621
1103 293 2 137 0 1 2 40 3 0 0.493
1104 293 2 138 2 1 1 36 3 1 0.535
1105 293 2 139 3 1 3 32 3 3 0.41
1106 293 2 140 3 1 0 32 3 3 0.511
1107 293 2 141 1 1 0 31 3 1 0.504
1108 293 2 142 3 1 2 33 3 3 0.457
1109 293 2 143 0 0 3 34 3 3 0.565
1110 293 2 144 2 1 0 35 3 1 0.608
1111 293 2 145 0 0 3 42 3 3 0.578
1112 293 2 146 0 0 2 31 3 3 0.63
1113 293 2 147 3 1 1 33 3 3 0.526
1114 293 2 148 3 1 0 33 3 3 0.423
1115 293 2 149 2 0 0 34 3 2 0.812
1116 293 2 150 3 0 2 33 3 3 0.532
1117 293 2 151 3 0 3 32 3 3 0.414
1118 293 2 152 3 0 1 34 3 3 0.532
1119 293 2 153 2 0 3 32 3 3 0.406
1120 293 2 154 1 0 1 34 3 1 0.431
1121 293 2 155 1 1 0 32 3 0 0.547
1122 293 2 156 2 0 1 33 3 3 0.776
1123 293 2 157 1 1 0 31 3 0 0.635
1124 293 2 158 0 0 2 33 3 0 0.701
1125 293 2 159 1 0 0 33 3 0 0.753
1126 293 2 160 3 0 2 36 3 3 0.534
1127 293 2 161 3 0 2 31 3 3 0.48
1128 293 2 162 0 0 3 34 3 3 0.403
1129 293 2 163 3 0 1 34 3 3 0.565
1130 293 2 164 3 1 0 35 3 0 0.604
1131 293 2 165 3 1 2 32 3 3 0.613
1132 293 2 166 3 1 3 38 3 3 0.538
1133 293 2 167 1 1 0 31 3 0 0.602
1134 293 2 168 2 0 1 33 3 2 0.797
1135 293 2 169 3 1 0 36 3 3 0.532
1136 293 2 170 2 1 2 31 3 3 0.604
1137 293 2 171 3 1 2 39 3 3 0.533
1138 293 2 172 3 1 3 31 3 3 0.558
1139 293 2 173 1 1 0 31 3 0 0.437
1140 293 2 174 3 0 2 32 3 2 0.909
1141 293 2 175 2 0 3 31 3 3 0.557
1142 293 2 176 1 1 3 32 3 2 2.158
1143 293 2 177 3 1 2 31 3 3 0.536
1144 293 2 178 1 0 0 33 3 1 0.745
1145 293 2 179 1 0 3 32 3 2 0.636
1146 293 2 180 1 1 3 31 3 3 0.651
1147 293 2 181 2 1 3 34 3 2 0.706
1148 293 2 182 3 1 1 33 3 3 0.532
1149 293 2 183 0 0 3 34 3 3 0.453
1150 293 2 184 1 1 1 32 3 0 0.62
1151 293 2 185 2 1 2 36 3 2 0.796
1152 293 2 186 1 0 1 35 3 0 0.853
1153 293 2 187 0 1 1 31 3 0 0.469
1154 293 2 188 2 0 0 31 3 2 0.769
1155 293 2 189 0 0 0 32 3 0 0.657
1156 293 2 190 3 0 0 31 3 3 0.678
1157 293 2 191 3 1 1 32 3 3 0.505
1158 293 3 192 2 1 3 33 3 2 0.594
1159 293 3 193 1 0 1 31 3 1 0.729
1160 293 3 194 3 1 3 31 3 3 0.706
1161 293 3 195 1 0 0 32 3 2 0.702
1162 293 3 196 1 1 3 33 3 1 0.492
1163 293 3 197 1 0 3 31 3 3 0.567
1164 293 3 198 0 0 3 31 3 3 0.707
1165 293 3 199 1 0 0 31 3 1 0.682
1166 293 3 200 0 1 1 31 3 2 0.916
1167 293 3 201 0 0 2 33 3 2 0.628
1168 293 3 202 0 1 1 34 3 0 0.397
1169 293 3 203 0 1 2 33 3 2 0.658
1170 293 3 204 2 1 1 32 3 2 0.497
1171 293 3 205 0 0 3 31 3 3 0.564
1172 293 3 206 3 1 2 32 3 3 0.991
1173 293 3 207 2 0 3 32 3 3 0.552
1174 293 3 208 3 0 1 37 3 3 0.557
1175 293 3 209 3 0 3 33 3 3 0.397
1176 293 3 210 1 1 1 32 3 1 0.891
1177 293 3 211 0 1 1 31 3 0 0.43
1178 293 3 212 1 1 2 32 3 2 0.642
1179 293 3 213 1 0 3 35 3 3 0.739
1180 293 3 214 0 1 0 31 3 0 0.639
1181 293 3 215 3 0 1 46 3 3 0.661
1182 293 3 216 0 1 2 32 3 2 0.641
1183 293 3 217 1 1 1 33 3 1 0.416
1184 293 3 218 0 1 1 35 3 0 0.357
1185 293 3 219 0 0 1 31 3 0 0.357
1186 293 3 220 1 0 2 33 3 2 0.588
1187 293 3 221 3 1 1 31 3 3 0.446
1188 293 3 222 0 0 0 35 3 2 0.859
1189 293 3 223 3 1 0 34 3 3 0.579
1190 293 3 224 2 0 1 33 3 2 0.667
1191 293 3 225 2 0 0 31 3 2 0.52
1192 293 3 226 3 0 0 33 3 2 0.642
1193 293 3 227 3 1 1 31 3 3 0.61
1194 293 3 228 1 1 0 32 3 1 0.439
1195 293 3 229 1 1 3 31 3 3 0.907
1196 293 3 230 0 1 0 32 3 0 0.392
1197 293 3 231 2 0 3 32 3 2 0.663
1198 293 3 232 2 0 2 33 3 2 0.549
1199 293 3 233 1 1 1 35 3 1 0.484
1200 293 3 234 2 1 0 33 3 2 0.534
1201 293 3 235 3 0 1 32 3 3 0.732
1202 293 3 236 0 0 1 32 3 0 0.543
1203 293 3 237 1 0 1 32 3 2 1.832
1204 293 3 238 1 0 3 35 3 3 0.599
1205 293 3 239 3 0 3 35 3 3 0.514
1206 293 3 240 1 1 2 32 3 1 0.755
1207 293 3 241 0 0 2 31 3 3 0.716
1208 293 3 242 1 1 2 32 3 2 0.602
1209 293 3 243 2 0 3 32 3 3 0.524
1210 293 3 244 2 1 0 31 3 0 0.624
1211 293 3 245 0 0 1 43 3 0 0.626
1212 293 3 246 2 0 2 32 3 2 0.584
1213 293 3 247 0 0 2 34 3 2 0.728
1214 293 3 248 1 0 3 32 3 3 0.551
1215 293 3 249 0 0 1 33 3 0 0.419
1216 293 3 250 0 0 0 36 3 1 0.609
1217 293 3 251 0 0 2 31 3 3 0.74
1218 293 3 252 2 1 3 34 3 3 0.672
1219 293 3 253 0 0 2 32 3 0 0.528
1220 293 3 254 2 0 2 35 3 2 0.657
1221 293 3 255 0 1 3 33 3 3 0.733
1222 293 4 256 3 0 3 31 3 3 1.075
1223 293 4 257 1 1 3 34 3 2 1.152
1224 293 4 258 0 0 3 32 3 3 0.559
1225 293 4 259 0 1 2 32 3 2 0.857
1226 293 4 260 2 0 2 36 3 2 1.379
1227 293 4 261 0 0 3 31 3 3 0.75
1228 293 4 262 2 1 1 45 3 2 1.05
1229 293 4 263 0 0 3 43 3 3 0.617
1230 293 4 264 2 0 0 33 3 1 0.627
1231 293 4 265 2 1 1 33 3 2 0.643
1232 293 4 266 0 0 0 32 3 0 0.473
1233 293 4 267 1 1 2 34 3 2 0.803
1234 293 4 268 1 1 1 31 3 1 0.533
1235 293 4 269 2 1 0 36 3 0 0.645
1236 293 4 270 1 0 1 34 3 0 0.847
1237 293 4 271 0 0 0 31 3 0 0.673
1238 293 4 272 3 1 1 32 3 3 0.676
1239 293 4 273 2 0 2 37 3 2 0.536
1240 293 4 274 2 1 1 32 3 2 0.696
1241 293 4 275 3 0 0 31 3 3 0.58
1242 293 4 276 1 0 0 32 3 3 0.58
1243 293 4 277 0 0 0 38 3 3 0.624
1244 293 4 278 2 0 2 31 3 2 0.482
1245 293 4 279 3 0 0 32 3 3 0.653
1246 293 4 280 2 1 2 31 3 2 0.561
1247 293 4 281 2 0 1 31 3 2 0.546
1248 293 4 282 1 0 1 34 3 1 0.506
1249 293 4 283 1 0 2 33 3 3 0.557
1250 293 4 284 3 1 3 34 3 2 0.664
1251 293 4 285 2 1 2 31 3 2 0.655
1252 293 4 286 2 1 3 33 3 1 0.611
1253 293 4 287 2 1 1 31 3 0 0.484
1254 293 4 288 1 0 0 39 3 1 1.539
1255 293 4 289 0 1 1 33 3 0 0.455
1256 293 4 290 1 0 0 31 3 2 0.643
1257 293 4 291 2 1 1 32 3 2 0.483
1258 293 4 292 1 0 2 33 3 3 0.723
1259 293 4 293 2 1 3 32 3 2 0.752
1260 293 4 294 2 1 3 36 3 2 0.624
1261 293 4 295 2 1 1 33 3 1 0.693
1262 293 4 296 1 1 3 33 3 1 0.427
1263 293 4 297 3 0 0 32 3 3 0.992
1264 293 4 298 3 1 3 32 3 3 0.72
1265 293 4 299 3 1 3 32 3 3 0.489
1266 293 4 300 0 1 0 33 3 1 0.523
1267 293 4 301 3 0 2 32 3 3 0.44
1268 293 4 302 0 1 3 38 3 3 0.556
1269 293 4 303 2 1 0 31 3 0 0.678
1270 293 4 304 0 1 0 31 3 2 0.837
1271 293 4 305 3 0 0 31 3 3 0.871
1272 293 4 306 3 1 2 34 3 3 0.515
1273 293 4 307 0 1 3 31 3 0 0.356
1274 293 4 308 3 1 0 31 3 3 0.474
1275 293 4 309 0 1 0 33 3 0 0.524
1276 293 4 310 2 0 0 31 3 3 0.659
1277 293 4 311 0 1 2 32 3 1 0.827
1278 293 4 312 2 0 1 32 3 0 0.589
1279 293 4 313 1 0 1 33 3 0 0.512
1280 293 4 314 1 0 3 31 3 3 1.078
1281 293 4 315 1 1 2 33 3 1 0.463
1282 293 4 316 0 0 1 31 3 0 0.443
1283 293 4 317 1 0 2 31 3 1 0.544
1284 293 4 318 2 1 0 31 3 1 0.536
1285 293 4 319 3 0 3 31 3 3 0.585
1286 295 0 0 2 1 0 31 3 2 1.067
1287 295 0 1 2 1 0 34 3 2 0.728
1288 295 0 2 2 1 2 31 3 3 0.833
1289 295 0 3 0 0 1 36 3 2 0.98
1290 295 0 4 2 1 1 32 3 3 0.92
1291 295 0 5 3 0 0 34 3 3 0.887
1292 295 0 6 1 1 3 32 3 1 0.89
1293 295 0 7 0 1 3 31 3 3 0.942
1294 295 0 8 1 0 1 32 3 1 0.774
1295 295 0 9 0 0 1 31 3 2 0.967
1296 295 0 10 0 0 2 33 3 3 1.156
1297 295 0 11 1 1 1 33 3 3 0.625
1298 295 0 12 2 1 3 34 3 0 0.962
1299 295 0 13 0 1 1 31 3 2 1.078
1300 295 0 14 2 0 2 32 3 2 0.64
1301 295 0 15 1 1 3 31 3 1 0.748
1302 295 0 16 1 0 2 32 3 1 0.926
1303 295 0 17 2 1 2 31 3 1 0.848
1304 295 0 18 0 0 2 33 3 1 0.93
1305 295 0 19 0 0 0 31 3 2 0.786
1306 295 0 20 3 0 3 33 3 3 0.582
1307 295 0 21 2 1 2 31 3 2 0.756
1308 295 0 22 0 0 0 31 3 2 0.838
1309 295 0 23 3 1 2 32 3 3 0.734
1310 295 0 24 0 1 2 33 3 0 0.712
1311 295 0 25 0 0 3 32 3 1 0.731
1312 295 0 26 2 1 2 32 3 2 0.776
1313 295 0 27 3 1 3 31 3 3 0.799
1314 295 0 28 0 1 2 33 3 2 0.838
1315 295 0 29 0 0 2 31 3 1 0.792
1316 295 0 30 3 0 1 31 3 3 0.94
1317 295 0 31 3 1 1 31 3 3 0.797
1318 295 0 32 3 1 1 31 3 3 0.5
1319 295 0 33 2 0 1 34 3 1 0.847
1320 295 0 34 2 1 0 31 3 3 0.664
1321 295 0 35 3 1 3 38 3 1 0.791
1322 295 0 36 3 1 3 32 3 3 0.641
1323 295 0 37 2 0 3 32 3 2 0.759
1324 295 0 38 2 1 3 31 3 2 0.751
1325 295 0 39 0 0 0 33 3 2 0.721
1326 295 0 40 2 1 1 32 3 2 0.461
1327 295 0 41 1 0 1 33 3 2 0.586
1328 295 0 42 2 1 1 33 3 2 0.812
1329 295 0 43 2 0 0 33 3 2 0.652
1330 295 0 44 0 0 0 31 3 2 0.673
1331 295 0 45 1 1 2 34 3 2 0.735
1332 295 0 46 2 1 0 38 3 3 0.907
1333 295 0 47 2 0 0 31 3 2 0.843
1334 295 0 48 0 1 1 39 3 3 0.8
1335 295 0 49 3 1 1 32 3 3 0.427
1336 295 0 50 2 0 1 31 3 2 0.472
1337 295 0 51 1 1 0 31 3 2 0.634
1338 295 0 52 0 1 1 33 3 3 0.682
1339 295 0 53 3 0 0 31 3 3 0.546
1340 295 0 54 2 1 3 35 3 1 0.85
1341 295 0 55 2 1 0 34 3 2 1.435
1342 295 0 56 0 0 2 33 3 0 0.516
1343 295 0 57 0 0 0 31 3 0 0.51
1344 295 0 58 2 1 1 32 3 2 0.623
1345 295 0 59 3 1 0 31 3 3 0.476
1346 295 0 60 2 0 2 37 3 2 0.664
1347 295 0 61 1 1 1 32 3 2 0.483
1348 295 0 62 0 0 2 31 3 2 0.483
1349 295 0 63 3 0 0 32 3 3 0.466
1350 295 1 64 0 1 2 32 3 1 1.202
1351 295 1 65 2 0 0 32 3 3 0.744
1352 295 1 66 2 1 0 32 3 0 0.868
1353 295 1 67 0 0 2 31 3 0 0.517
1354 295 1 68 0 0 1 31 3 3 0.975
1355 295 1 69 1 0 0 31 3 1 0.717
1356 295 1 70 2 0 1 32 3 2 0.704
1357 295 1 71 2 0 2 31 3 1 0.819
1358 295 1 72 0 0 1 33 3 0 0.774
1359 295 1 73 2 1 0 33 3 2 0.829
1360 295 1 74 3 1 0 33 3 3 0.451
1361 295 1 75 2 1 0 31 3 2 0.678
1362 295 1 76 1 0 2 31 3 1 0.842
1363 295 1 77 3 0 2 31 3 3 0.889
1364 295 1 78 0 1 0 34 3 1 0.764
1365 295 1 79 1 1 0 32 3 2 0.44
1366 295 1 80 1 0 3 35 3 3 0.728
1367 295 1 81 0 0 3 31 3 3 0.575
1368 295 1 82 3 1 3 32 3 3 0.593
1369 295 1 83 0 1 3 31 3 2 0.815
1370 295 1 84 2 1 1 35 3 1 0.697
1371 295 1 85 3 1 1 33 3 3 0.535
1372 295 1 86 1 0 3 32 3 1 0.816
1373 295 1 87 1 0 3 32 3 1 0.752
1374 295 1 88 1 1 2 35 3 1 0.984
1375 295 1 89 3 1 1 32 3 3 1.063
1376 295 1 90 2 1 1 32 3 1 1.205
1377 295 1 91 1 0 0 33 3 2 0.522
1378 295 1 92 2 0 2 31 3 2 0.599
1379 295 1 93 1 1 0 32 3 1 0.853
1380 295 1 94 3 0 3 35 3 3 0.819
1381 295 1 95 3 1 3 33 3 3 0.425
1382 295 1 96 3 0 3 33 3 3 0.486
1383 295 1 97 3 0 2 32 3 3 0.433
1384 295 1 98 3 0 1 32 3 3 1.023
1385 295 1 99 3 0 3 33 3 3 0.407
1386 295 1 100 1 1 3 31 3 1 0.811
1387 295 1 101 0 1 3 31 3 0 0.674
1388 295 1 102 2 0 3 31 3 2 0.886
1389 295 1 103 2 1 0 32 3 0 0.793
1390 295 1 104 3 0 3 31 3 3 0.493
1391 295 1 105 3 0 3 32 3 3 0.424
1392 295 1 106 1 0 1 32 3 2 0.549
1393 295 1 107 0 0 1 31 3 3 0.578
1394 295 1 108 3 0 0 35 3 3 0.51
1395 295 1 109 3 0 2 31 3 3 0.392
1396 295 1 110 2 1 3 34 3 1 0.845
1397 295 1 111 2 1 2 35 3 2 0.502
1398 295 1 112 0 1 1 31 3 2 0.519
1399 295 1 113 0 0 3 31 3 3 0.916
1400 295 1 114 0 1 2 31 3 0 0.474
1401 295 1 115 1 1 1 31 3 0 0.588
1402 295 1 116 1 1 2 32 3 1 1.022
1403 295 1 117 0 1 3 31 3 0 0.604
1404 295 1 118 3 0 3 31 3 3 0.643
1405 295 1 119 1 1 3 31 3 2 1.263
1406 295 1 120 3 1 0 31 3 3 0.489
1407 295 1 121 1 0 1 31 3 3 0.756
1408 295 1 122 3 0 1 32 3 3 0.425
1409 295 1 123 3 1 0 32 3 0 0.925
1410 295 1 124 2 1 3 34 3 2 0.594
1411 295 1 125 2 0 3 35 3 2 0.666
1412 295 1 126 1 1 0 32 3 2 0.773
1413 295 1 127 0 1 2 34 3 0 0.513
1414 295 2 128 3 1 2 33 3 2 0.994
1415 295 2 129 0 1 0 32 3 1 1.061
1416 295 2 130 2 0 3 33 3 1 0.912
1417 295 2 131 1 1 2 31 3 1 0.502
1418 295 2 132 0 1 2 32 3 0 0.423
1419 295 2 133 0 0 2 34 3 0 0.452
1420 295 2 134 1 0 2 31 3 1 1.008
1421 295 2 135 3 1 2 31 3 3 0.768
1422 295 2 136 1 0 1 31 3 1 0.913
1423 295 2 137 0 1 0 31 3 0 0.564
1424 295 2 138 3 0 0 41 3 3 0.893
1425 295 2 139 1 1 3 31 3 1 0.768
1426 295 2 140 3 1 1 32 3 3 0.472
1427 295 2 141 1 0 1 31 3 1 0.868
1428 295 2 142 0 0 3 34 3 3 0.865
1429 295 2 143 2 1 3 35 3 2 0.841
1430 295 2 144 3 0 1 32 3 3 0.456
1431 295 2 145 0 0 0 33 3 0 1.092
1432 295 2 146 3 1 3 31 3 3 0.672
1433 295 2 147 3 0 2 32 3 3 0.612
1434 295 2 148 3 0 2 31 3 3 0.459
1435 295 2 149 3 1 3 31 3 3 0.43
1436 295 2 150 0 0 3 31 3 1 0.844
1437 295 2 151 0 1 0 32 3 2 0.756
1438 295 2 152 3 1 2 32 3 3 0.464
1439 295 2 153 0 1 3 37 3 3 0.451
1440 295 2 154 1 0 2 33 3 1 0.883
1441 295 2 155 1 0 0 39 3 1 0.832
1442 295 2 156 0 0 0 31 3 0 0.672
1443 295 2 157 1 0 3 31 3 1 0.708
1444 295 2 158 0 0 1 32 3 3 0.663
1445 295 2 159 1 1 2 31 3 1 0.647
1446 295 2 160 2 1 1 33 3 2 0.723
1447 295 2 161 0 1 0 37 3 0 0.956
1448 295 2 162 1 1 1 34 3 1 0.589
1449 295 2 163 1 1 0 32 3 1 0.667
1450 295 2 164 3 1 0 41 3 3 0.582
1451 295 2 165 2 1 2 36 3 2 0.709
1452 295 2 166 1 0 1 31 3 3 0.68
1453 295 2 167 3 0 0 31 3 3 0.448
1454 295 2 168 1 1 0 31 3 1 0.691
1455 295 2 169 0 1 0 31 3 0 0.606
1456 295 2 170 1 0 2 33 3 3 0.805
1457 295 2 171 1 0 0 35 3 1 0.648
1458 295 2 172 2 1 2 33 3 2 0.724
1459 295 2 173 0 1 1 31 3 3 0.605
1460 295 2 174 0 1 0 34 3 0 0.574
1461 295 2 175 2 0 2 32 3 2 0.454
1462 295 2 176 2 0 0 31 3 2 0.963
1463 295 2 177 3 1 2 33 3 3 0.564
1464 295 2 178 0 0 3 33 3 3 0.524
1465 295 2 179 0 0 3 33 3 3 0.458
1466 295 2 180 3 0 1 32 3 3 0.426
1467 295 2 181 1 1 3 37 3 2 0.541
1468 295 2 182 1 1 1 32 3 3 0.625
1469 295 2 183 2 1 3 31 3 2 0.945
1470 295 2 184 2 0 1 31 3 3 0.524
1471 295 2 185 3 1 0 44 3 3 0.464
1472 295 2 186 2 0 2 41 3 2 0.908
1473 295 2 187 1 0 2 31 3 1 0.857
1474 295 2 188 3 1 0 33 3 3 0.781
1475 295 2 189 1 1 2 31 3 1 0.821
1476 295 2 190 0 1 0 31 3 0 0.746
1477 295 2 191 1 1 2 31 3 1 0.771
1478 295 3 192 0 1 1 31 3 3 0.483
1479 295 3 193 3 0 2 32 3 3 0.434
1480 295 3 194 1 0 0 32 3 1 0.752
1481 295 3 195 3 0 3 35 3 3 0.449
1482 295 3 196 0 1 3 35 3 2 0.789
1483 295 3 197 2 1 2 31 3 2 0.351
1484 295 3 198 2 1 1 32 3 2 0.406
1485 295 3 199 1 0 1 32 3 3 0.532
1486 295 3 200 0 1 1 32 3 0 0.664
1487 295 3 201 3 0 1 31 3 3 0.765
1488 295 3 202 0 1 1 31 3 0 0.597
1489 295 3 203 3 0 0 33 3 3 0.397
1490 295 3 204 3 0 3 35 3 3 0.555
1491 295 3 205 0 0 0 32 3 1 1.204
1492 295 3 206 2 1 3 37 3 2 0.8
1493 295 3 207 2 1 3 31 3 2 0.358
1494 295 3 208 2 0 3 33 3 2 0.438
1495 295 3 209 0 0 0 45 3 2 0.77
1496 295 3 210 1 0 1 33 3 1 0.951
1497 295 3 211 2 1 0 31 3 2 0.776
1498 295 3 212 2 0 0 31 3 2 0.569
1499 295 3 213 2 1 1 31 3 2 0.44
1500 295 3 214 1 0 2 34 3 1 0.66
1501 295 3 215 1 1 3 31 3 1 0.88
1502 295 3 216 2 0 2 31 3 1 0.653
1503 295 3 217 1 0 3 34 3 1 0.598
1504 295 3 218 1 0 3 36 3 1 0.765
1505 295 3 219 0 0 0 31 3 0 0.415
1506 295 3 220 2 1 2 31 3 2 0.612
1507 295 3 221 1 1 1 36 3 2 0.399
1508 295 3 222 3 1 1 35 3 3 0.951
1509 295 3 223 2 0 2 31 3 1 0.882
1510 295 3 224 3 1 0 31 3 3 0.425
1511 295 3 225 2 0 3 31 3 1 0.695
1512 295 3 226 1 1 0 34 3 1 0.709
1513 295 3 227 3 1 3 31 3 3 0.59
1514 295 3 228 0 0 2 32 3 2 0.614
1515 295 3 229 1 1 0 31 3 1 0.711
1516 295 3 230 1 1 1 35 3 -1 0.417
1517 295 3 231 0 1 1 33 3 1 0.551
1518 295 3 232 2 1 3 31 3 3 0.603
1519 295 3 233 0 0 1 36 3 3 0.741
1520 295 3 234 1 1 3 31 3 1 0.737
1521 295 3 235 1 0 3 31 3 1 0.82
1522 295 3 236 2 0 3 32 3 2 0.691
1523 295 3 237 3 1 2 32 3 3 0.669
1524 295 3 238 1 0 1 31 3 2 0.674
1525 295 3 239 3 0 0 32 3 3 0.394
1526 295 3 240 0 1 1 31 3 1 0.976
1527 295 3 241 3 0 1 31 3 3 0.477
1528 295 3 242 3 1 0 34 3 3 0.767
1529 295 3 243 0 1 3 31 3 1 0.839
1530 295 3 244 2 0 1 32 3 2 0.713
1531 295 3 245 3 0 2 32 3 3 0.445
1532 295 3 246 2 0 0 32 3 2 0.713
1533 295 3 247 2 1 1 31 3 3 0.515
1534 295 3 248 0 1 0 32 3 0 0.424
1535 295 3 249 3 0 1 35 3 3 0.389
1536 295 3 250 0 0 1 31 3 2 0.644
1537 295 3 251 3 1 1 33 3 3 0.356
1538 295 3 252 1 0 2 31 3 1 1.636
1539 295 3 253 1 0 0 32 3 1 0.71
1540 295 3 254 3 1 2 39 3 3 0.406
1541 295 3 255 0 1 3 36 3 0 0.603
1542 295 4 256 1 0 3 34 3 1 1.155
1543 295 4 257 2 0 1 33 3 2 0.727
1544 295 4 258 2 0 2 31 3 2 0.762
1545 295 4 259 3 0 1 33 3 3 0.379
1546 295 4 260 2 0 2 32 3 1 0.874
1547 295 4 261 2 0 3 36 3 1 0.683
1548 295 4 262 2 0 0 32 3 2 0.419
1549 295 4 263 2 0 1 32 3 3 0.593
1550 295 4 264 1 0 0 35 3 1 0.716
1551 295 4 265 0 1 3 32 3 0 0.838
1552 295 4 266 1 1 1 32 3 1 0.779
1553 295 4 267 2 0 3 31 3 2 0.971
1554 295 4 268 2 0 1 32 3 1 0.981
1555 295 4 269 0 0 3 31 3 0 0.434
1556 295 4 270 0 1 2 37 3 0 0.438
1557 295 4 271 3 0 3 31 3 3 0.786
1558 295 4 272 3 1 2 33 3 3 0.457
1559 295 4 273 1 1 1 34 3 1 0.716
1560 295 4 274 1 0 2 33 3 1 0.75
1561 295 4 275 1 0 0 33 3 2 0.832
1562 295 4 276 3 0 2 34 3 2 0.403
1563 295 4 277 0 0 3 35 3 0 0.516
1564 295 4 278 0 1 2 32 3 0 0.549
1565 295 4 279 0 1 3 33 3 0 0.405
1566 295 4 280 1 1 2 31 3 1 0.633
1567 295 4 281 0 0 2 31 3 0 0.64
1568 295 4 282 3 1 1 31 3 3 0.508
1569 295 4 283 3 0 2 33 3 3 0.326
1570 295 4 284 1 0 0 36 3 3 0.359
1571 295 4 285 3 0 1 34 3 0 0.203
1572 295 4 286 2 0 1 32 3 2 0.74
1573 295 4 287 1 0 3 31 3 3 0.758
1574 295 4 288 3 0 0 33 3 3 0.427
1575 295 4 289 1 1 0 31 3 1 1.007
1576 295 4 290 3 1 3 31 3 2 0.686
1577 295 4 291 3 1 2 32 3 3 0.364
1578 295 4 292 1 1 1 31 3 2 0.658
1579 295 4 293 0 0 1 31 3 2 0.683
1580 295 4 294 1 1 2 32 3 1 1.321
1581 295 4 295 3 0 2 31 3 3 0.871
1582 295 4 296 3 1 2 32 3 3 0.763
1583 295 4 297 0 1 2 31 3 0 0.755
1584 295 4 298 0 1 2 32 3 -1 0.491
1585 295 4 299 2 0 0 31 3 1 0.85
1586 295 4 300 3 1 1 31 3 3 1.019
1587 295 4 301 3 0 0 33 3 3 1.043
1588 295 4 302 0 0 3 34 3 2 0.906
1589 295 4 303 2 0 1 31 3 0 1.002
1590 295 4 304 1 1 3 32 3 0 0.797
1591 295 4 305 1 0 2 37 3 1 0.784
1592 295 4 306 1 0 0 34 3 1 0.817
1593 295 4 307 2 0 3 31 3 2 0.753
1594 295 4 308 2 1 2 31 3 2 1.065
1595 295 4 309 0 0 2 39 3 0 0.751
1596 295 4 310 2 0 0 34 3 1 0.768
1597 295 4 311 1 0 3 31 3 1 0.645
1598 295 4 312 1 1 3 33 3 1 0.945
1599 295 4 313 0 0 1 32 3 3 0.892
1600 295 4 314 1 1 2 32 3 1 1.107
1601 295 4 315 0 1 0 34 3 0 0.719
1602 295 4 316 3 1 3 34 3 3 0.728
1603 295 4 317 1 1 0 33 3 1 0.848
1604 295 4 318 2 0 0 33 3 2 0.671
1605 295 4 319 3 1 0 31 3 3 0.954
1606 299 0 0 0 1 0 33 3 1 1.052
1607 299 0 1 2 0 1 31 3 2 0.885
1608 299 0 2 1 0 1 36 3 1 0.785
1609 299 0 3 3 1 1 33 3 2 0.838
1610 299 0 4 3 1 0 33 3 1 1.068
1611 299 0 5 3 1 3 36 3 3 1.035
1612 299 0 6 1 0 0 31 3 1 0.721
1613 299 0 7 2 0 3 31 3 2 0.786
1614 299 0 8 3 1 3 33 3 3 0.839
1615 299 0 9 3 1 2 31 3 3 0.778
1616 299 0 10 0 0 2 32 3 0 0.761
1617 299 0 11 2 1 0 47 3 1 0.783
1618 299 0 12 0 1 3 37 3 3 0.873
1619 299 0 13 0 1 2 33 3 0 0.67
1620 299 0 14 3 0 2 32 3 3 0.881
1621 299 0 15 3 1 0 39 3 2 0.851
1622 299 0 16 3 0 2 31 3 3 0.963
1623 299 0 17 1 0 3 33 3 1 0.764
1624 299 0 18 0 1 0 32 3 0 0.674
1625 299 0 19 0 0 1 33 3 0 0.698
1626 299 0 20 2 0 1 31 3 2 0.844
1627 299 0 21 2 0 0 33 3 2 0.793
1628 299 0 22 2 0 2 33 3 2 0.855
1629 299 0 23 3 1 2 32 3 3 0.794
1630 299 0 24 1 0 0 32 3 1 0.729
1631 299 0 25 0 0 2 31 3 0 0.666
1632 299 0 26 1 0 1 41 3 1 0.733
1633 299 0 27 0 0 1 32 3 3 0.862
1634 299 0 28 1 1 2 33 3 2 0.884
1635 299 0 29 1 1 3 32 3 2 0.841
1636 299 0 30 3 0 1 31 3 3 0.922
1637 299 0 31 3 0 0 32 3 3 0.835
1638 299 0 32 3 0 1 34 3 3 0.816
1639 299 0 33 2 1 3 32 3 1 0.756
1640 299 0 34 2 0 3 32 3 2 0.823
1641 299 0 35 3 1 3 32 3 3 0.779
1642 299 0 36 1 1 2 31 3 2 0.801
1643 299 0 37 3 1 0 34 3 3 0.824
1644 299 0 38 1 0 0 31 3 1 0.774
1645 299 0 39 2 0 2 33 3 2 0.869
1646 299 0 40 1 0 0 32 3 2 0.865
1647 299 0 41 1 1 3 32 3 1 0.887
1648 299 0 42 1 0 1 37 3 2 1.01
1649 299 0 43 0 1 3 33 3 0 0.739
1650 299 0 44 0 0 1 34 3 0 0.675
1651 299 0 45 2 1 0 32 3 2 0.86
1652 299 0 46 3 0 3 31 3 3 0.857
1653 299 0 47 1 1 1 32 3 1 0.763
1654 299 0 48 2 0 1 33 3 2 0.891
1655 299 0 49 1 0 1 31 3 1 0.742
1656 299 0 50 2 1 3 40 3 2 0.733
1657 299 0 51 0 1 0 31 3 1 1.316
1658 299 0 52 0 0 3 35 3 0 0.723
1659 299 0 53 2 0 1 31 3 2 0.868
1660 299 0 54 0 0 3 31 3 0 0.688
1661 299 0 55 0 1 0 31 3 2 1.081
1662 299 0 56 3 1 1 31 3 3 0.759
1663 299 0 57 0 1 1 34 3 1 0.862
1664 299 0 58 3 0 1 31 3 3 1.037
1665 299 0 59 0 0 0 32 3 2 0.931
1666 299 0 60 1 1 2 34 3 0 0.855
1667 299 0 61 0 1 0 31 3 1 0.844
1668 299 0 62 1 0 2 31 3 1 0.812
1669 299 0 63 1 1 0 35 3 1 0.833
1670 299 1 64 2 0 2 33 3 1 0.81
1671 299 1 65 3 0 1 32 3 3 0.988
1672 299 1 66 2 0 2 31 3 2 0.803
1673 299 1 67 1 0 0 33 3 1 0.737
1674 299 1 68 2 0 1 32 3 2 0.817
1675 299 1 69 0 1 3 31 3 1 0.741
1676 299 1 70 0 1 0 31 3 1 0.738
1677 299 1 71 2 1 0 32 3 2 0.732
1678 299 1 72 0 0 2 33 3 3 0.909
1679 299 1 73 1 1 1 31 3 2 0.706
1680 299 1 74 2 1 2 33 3 2 1.165
1681 299 1 75 2 1 1 33 3 1 0.71
1682 299 1 76 1 1 3 34 3 1 0.657
1683 299 1 77 3 0 1 36 3 3 0.884
1684 299 1 78 2 1 3 31 3 1 0.806
1685 299 1 79 3 1 3 35 3 3 0.814
1686 299 1 80 3 1 3 36 3 3 0.914
1687 299 1 81 1 0 2 31 3 1 0.829
1688 299 1 82 3 0 0 38 3 3 0.922
1689 299 1 83 3 1 0 34 3 3 0.827
1690 299 1 84 0 0 3 32 3 1 0.968
1691 299 1 85 2 1 3 32 3 1 0.714
1692 299 1 86 2 1 0 34 3 1 0.805
1693 299 1 87 2 1 0 32 3 3 0.525
1694 299 1 88 2 1 2 33 3 2 0.559
1695 299 1 89 1 0 1 31 3 1 0.566
1696 299 1 90 3 0 0 33 3 1 0.749
1697 299 1 91 1 0 2 31 3 2 0.705
1698 299 1 92 3 1 2 31 3 3 1.149
1699 299 1 93 0 0 2 35 3 3 0.687
1700 299 1 94 0 1 2 34 3 2 0.587
1701 299 1 95 2 0 0 32 3 1 0.596
1702 299 1 96 1 0 2 31 3 1 0.541
1703 299 1 97 3 0 0 34 3 3 0.549
1704 299 1 98 0 1 3 31 3 2 0.611
1705 299 1 99 3 0 2 32 3 3 0.86
1706 299 1 100 2 1 0 31 3 1 0.526
1707 299 1 101 2 0 3 31 3 1 0.746
1708 299 1 102 3 1 1 32 3 3 0.48
1709 299 1 103 1 1 0 32 3 1 0.544
1710 299 1 104 2 0 2 35 3 2 0.744
1711 299 1 105 1 0 3 32 3 1 0.6
1712 299 1 106 3 0 0 31 3 3 0.606
1713 299 1 107 2 0 2 35 3 2 1.123
1714 299 1 108 3 0 0 31 3 3 0.565
1715 299 1 109 0 1 2 34 3 2 0.643
1716 299 1 110 2 0 2 34 3 2 0.714
1717 299 1 111 3 0 3 31 3 3 0.556
1718 299 1 112 0 0 2 34 3 0 0.675
1719 299 1 113 1 1 3 31 3 1 0.588
1720 299 1 114 2 1 3 35 3 1 0.616
1721 299 1 115 1 1 3 31 3 1 0.471
1722 299 1 116 3 1 1 43 3 3 0.664
1723 299 1 117 3 0 3 32 3 3 0.523
1724 299 1 118 1 0 3 32 3 1 0.579
1725 299 1 119 2 1 2 31 3 2 0.736
1726 299 1 120 1 1 1 32 3 1 0.535
1727 299 1 121 1 0 1 32 3 1 0.526
1728 299 1 122 2 1 3 35 3 2 0.562
1729 299 1 123 1 1 2 37 3 2 0.543
1730 299 1 124 1 1 1 32 3 2 0.608
1731 299 1 125 1 0 2 31 3 1 0.585
1732 299 1 126 3 1 2 32 3 3 0.518
1733 299 1 127 1 0 0 33 3 1 1.246
1734 299 2 128 2 1 0 31 3 2 0.547
1735 299 2 129 2 0 1 31 3 2 0.618
1736 299 2 130 1 0 3 31 3 1 0.943
1737 299 2 131 2 0 3 32 3 2 0.632
1738 299 2 132 3 1 1 31 3 3 0.803
1739 299 2 133 1 0 2 32 3 1 0.561
1740 299 2 134 0 0 3 34 3 0 0.712
1741 299 2 135 0 0 1 38 3 0 0.506
1742 299 2 136 0 1 0 32 3 1 0.665
1743 299 2 137 0 0 1 31 3 0 0.544
1744 299 2 138 0 1 1 33 3 1 0.654
1745 299 2 139 1 1 3 31 3 1 0.811
1746 299 2 140 3 0 3 31 3 3 1.129
1747 299 2 141 1 0 0 35 3 1 0.748
1748 299 2 142 2 0 3 31 3 2 0.62
1749 299 2 143 3 0 1 32 3 3 0.593
1750 299 2 144 2 1 1 34 3 2 0.653
1751 299 2 145 3 1 2 31 3 3 0.519
1752 299 2 146 2 0 3 34 3 1 0.719
1753 299 2 147 0 1 2 34 3 1 0.586
1754 299 2 148 0 0 3 32 3 0 0.788
1755 299 2 149 2 0 2 32 3 2 0.706
1756 299 2 150 0 1 0 33 3 0 0.666
1757 299 2 151 1 1 1 34 3 1 1.092
1758 299 2 152 2 1 1 37 3 2 0.543
1759 299 2 153 2 1 3 32 3 2 0.669
1760 299 2 154 2 1 1 33 3 2 1.062
1761 299 2 155 2 0 0 31 3 3 0.875
1762 299 2 156 3 1 0 31 3 3 0.48
1763 299 2 157 2 1 3 32 3 1 0.574
1764 299 2 158 1 1 2 34 3 2 0.494
1765 299 2 159 1 1 3 31 3 1 0.626
1766 299 2 160 0 0 0 31 3 3 0.934
1767 299 2 161 1 1 0 33 3 1 0.633
1768 299 2 162 2 1 2 35 3 2 0.82
1769 299 2 163 1 0 3 31 3 2 0.834
1770 299 2 164 1 0 2 38 3 1 1.346
1771 299 2 165 3 0 2 32 3 3 0.605
1772 299 2 166 0 0 3 32 3 2 0.77
1773 299 2 167 0 0 3 33 3 0 0.997
1774 299 2 168 1 1 0 32 3 1 0.755
1775 299 2 169 1 0 0 37 3 1 0.643
1776 299 2 170 0 0 1 32 3 0 1.031
1777 299 2 171 2 0 3 31 3 2 0.621
1778 299 2 172 0 0 0 35 3 1 0.817
1779 299 2 173 3 0 2 34 3 3 1.235
1780 299 2 174 0 0 0 31 3 2 0.801
1781 299 2 175 2 1 2 32 3 1 0.73
1782 299 2 176 0 0 0 35 3 0 1.054
1783 299 2 177 3 1 3 34 3 3 0.634
1784 299 2 178 0 1 3 31 3 0 0.548
1785 299 2 179 0 1 1 31 3 0 0.555
1786 299 2 180 2 1 3 31 3 2 1.096
1787 299 2 181 1 1 2 31 3 1 0.579
1788 299 2 182 0 1 1 32 3 2 0.991
1789 299 2 183 3 1 2 31 3 3 0.433
1790 299 2 184 1 1 0 33 3 1 0.531
1791 299 2 185 1 1 1 31 3 1 0.53
1792 299 2 186 3 0 1 31 3 3 0.65
1793 299 2 187 1 1 0 38 3 1 0.5
1794 299 2 188 1 1 0 31 3 3 0.627
1795 299 2 189 0 1 1 31 3 0 0.561
1796 299 2 190 1 1 1 31 3 1 0.558
1797 299 2 191 0 1 3 31 3 2 0.699
1798 299 3 192 0 0 0 31 3 0 0.802
1799 299 3 193 0 0 2 37 3 0 0.816
1800 299 3 194 3 1 3 32 3 3 1.028
1801 299 3 195 0 1 2 32 3 1 0.785
1802 299 3 196 2 1 0 36 3 0 0.49
1803 299 3 197 3 1 0 32 3 3 0.542
1804 299 3 198 2 0 0 35 3 2 0.629
1805 299 3 199 3 1 0 32 3 3 0.464
1806 299 3 200 0 1 3 31 3 1 0.753
1807 299 3 201 2 1 2 31 3 2 0.715
1808 300 0 0 0 1 1 32 3 1 0.916
1809 299 3 202 0 1 1 31 3 0 0.499
1810 299 3 203 3 0 2 31 3 3 1.052
1811 300 0 1 2 1 3 32 3 2 1.689
1812 299 3 204 0 1 2 33 3 0 0.568
1813 300 0 2 1 0 0 32 3 3 1.121
1814 299 3 205 1 0 0 34 3 3 0.702
1815 300 0 3 2 0 2 32 3 0 0.696
1816 299 3 206 3 1 3 31 3 3 0.522
1817 300 0 4 2 0 1 34 3 2 1.147
1818 299 3 207 3 1 0 34 3 3 0.44
1819 299 3 208 0 0 0 33 3 0 0.595
1820 300 0 5 1 1 0 32 3 1 1.309
1821 299 3 209 2 1 3 31 3 2 0.528
1822 300 0 6 3 1 0 31 3 0 1.649
1823 299 3 210 0 0 1 31 3 2 0.84
1824 300 0 7 3 0 2 32 3 3 0.997
1825 299 3 211 2 0 2 36 3 3 0.76
1826 300 0 8 2 1 1 38 3 1 0.829
1827 299 3 212 0 1 1 33 3 0 0.498
1828 300 0 9 2 0 3 32 3 2 1.287
1829 299 3 213 1 0 3 31 3 1 1.163
1830 300 0 10 3 0 0 31 3 3 1.173
1831 299 3 214 2 1 1 31 3 2 0.659
1832 299 3 215 0 0 1 33 3 2 0.711
1833 300 0 11 0 0 2 34 3 0 0.975
1834 299 3 216 0 0 3 38 3 1 0.828
1835 300 0 12 0 1 2 32 3 0 1.007
1836 299 3 217 0 0 3 34 3 3 0.589
1837 300 0 13 3 1 0 31 3 3 1.157
1838 299 3 218 1 1 1 31 3 2 0.604
1839 300 0 14 0 1 3 31 3 3 1.118
1840 299 3 219 0 1 1 34 3 0 0.508
1841 299 3 220 2 1 2 31 3 2 0.724
1842 300 0 15 0 0 3 32 3 0 1.133
1843 299 3 221 0 1 1 40 3 0 0.508
1844 300 0 16 0 1 2 32 3 0 0.856
1845 299 3 222 1 1 3 35 3 2 0.811
1846 300 0 17 2 0 0 32 3 3 1.245
1847 299 3 223 2 0 0 32 3 2 0.732
1848 300 0 18 0 1 3 35 3 3 1.567
1849 299 3 224 1 1 1 34 3 1 0.852
1850 300 0 19 0 1 3 31 3 0 0.869
1851 299 3 225 2 1 1 34 3 2 0.647
1852 300 0 20 3 1 0 32 3 3 0.848
1853 299 3 226 3 0 2 34 3 3 0.778
1854 300 0 21 1 0 0 34 3 1 0.886
1855 299 3 227 2 0 3 34 3 3 1.402
1856 300 0 22 1 0 1 32 3 1 0.698
1857 299 3 228 3 1 2 32 3 2 1.308
1858 300 0 23 0 0 1 32 3 0 1.006
1859 299 3 229 0 0 1 34 3 2 0.652
1860 300 0 24 0 0 1 32 3 0 0.694
1861 299 3 230 1 0 3 31 3 1 0.505
1862 300 0 25 0 0 0 33 3 1 0.937
1863 299 3 231 3 0 0 31 3 3 0.482
1864 300 0 26 3 0 1 31 3 3 0.983
1865 299 3 232 3 0 3 34 3 3 0.635
1866 300 0 27 1 1 0 31 3 3 0.87
1867 299 3 233 2 0 1 31 3 2 0.575
1868 300 0 28 2 1 2 32 3 1 0.725
1869 299 3 234 2 0 1 34 3 2 0.55
1870 299 3 235 1 0 1 35 3 1 0.493
1871 300 0 29 3 1 1 31 3 3 1.369
1872 299 3 236 1 1 0 32 3 1 0.653
1873 300 0 30 2 0 0 33 3 3 1.364
1874 299 3 237 3 1 1 32 3 3 0.455
1875 300 0 31 2 1 2 31 3 1 0.882
1876 299 3 238 2 0 0 31 3 1 0.689
1877 300 0 32 0 0 1 31 3 1 0.746
1878 299 3 239 1 1 1 31 3 3 0.541
1879 300 0 33 1 0 2 36 3 1 0.679
1880 299 3 240 2 1 1 31 3 2 0.431
1881 300 0 34 3 1 2 36 3 3 1.01
1882 299 3 241 1 0 2 32 3 1 0.603
1883 299 3 242 1 0 1 31 3 1 0.832
1884 300 0 35 2 0 3 32 3 1 1.13
1885 299 3 243 3 1 2 36 3 3 0.596
1886 300 0 36 3 0 2 31 3 3 0.881
1887 299 3 244 1 1 2 31 3 1 0.48
1888 300 0 37 1 0 3 35 3 3 0.894
1889 299 3 245 0 0 3 37 3 3 0.618
1890 300 0 38 3 0 1 33 3 3 0.822
1891 299 3 246 3 1 1 32 3 3 0.601
1892 300 0 39 1 0 3 32 3 1 0.812
1893 299 3 247 3 0 3 32 3 3 0.479
1894 300 0 40 3 1 2 31 3 3 0.89
1895 299 3 248 1 0 3 39 3 1 0.791
1896 300 0 41 0 0 3 35 3 1 1.014
1897 299 3 249 0 1 2 31 3 1 0.588
1898 300 0 42 3 1 0 32 3 2 0.28
1899 299 3 250 2 0 3 32 3 2 0.613
1900 300 0 43 0 1 0 40 3 -1 0.404
1901 299 3 251 0 0 2 35 3 2 0.666
1902 299 3 252 0 1 0 32 3 3 0.663
1903 300 0 44 0 1 1 31 3 1 2.008
1904 299 3 253 0 0 1 32 3 3 1.166
1905 300 0 45 3 1 1 37 3 0 0.823
1906 299 3 254 3 0 0 32 3 3 1.075
1907 300 0 46 0 0 2 31 3 3 0.985
1908 300 0 47 2 1 2 36 3 2 0.867
1909 299 3 255 0 0 0 33 3 2 2.151
1910 300 0 48 2 0 1 31 3 1 0.848
1911 300 0 49 0 1 1 42 3 1 0.952
1912 300 0 50 3 0 3 34 3 0 1.501
1913 300 0 51 0 1 1 33 3 1 0.933
1914 300 0 52 1 0 3 31 3 2 0.907
1915 300 0 53 2 1 2 34 3 2 1.121
1916 300 0 54 1 1 1 31 3 1 0.851
1917 300 0 55 0 0 3 31 3 0 0.657
1918 299 4 256 2 0 2 31 3 2 0.905
1919 300 0 56 1 0 2 31 3 1 0.917
1920 299 4 257 1 1 2 35 3 1 0.81
1921 300 0 57 0 0 1 31 3 1 0.704
1922 299 4 258 1 0 1 31 3 1 0.803
1923 300 0 58 0 0 1 31 3 2 1.103
1924 299 4 259 0 1 2 33 3 2 0.84
1925 300 0 59 3 1 2 31 3 3 1.133
1926 299 4 260 3 1 3 41 3 3 0.591
1927 300 0 60 2 0 1 31 3 2 0.985
1928 299 4 261 0 0 2 32 3 0 0.709
1929 300 0 61 2 1 3 32 3 1 1.048
1930 299 4 262 3 0 0 34 3 2 0.918
1931 300 0 62 0 0 3 33 3 3 1.067
1932 299 4 263 3 0 1 34 3 2 0.579
1933 299 4 264 1 0 2 33 3 1 0.477
1934 300 0 63 0 0 0 31 3 1 1.46
1935 299 4 265 1 1 3 32 3 2 0.574
1936 299 4 266 3 0 2 34 3 3 0.824
1937 299 4 267 0 1 3 33 3 0 0.571
1938 300 1 64 1 1 1 31 3 1 0.632
1939 299 4 268 2 0 0 31 3 2 0.994
1940 300 1 65 0 0 1 33 3 1 0.87
1941 299 4 269 3 1 0 35 3 3 0.464
1942 300 1 66 0 1 2 32 3 2 1.021
1943 299 4 270 2 1 2 36 3 2 0.609
1944 300 1 67 3 0 2 32 3 3 1.256
1945 299 4 271 0 1 3 32 3 0 0.556
1946 300 1 68 3 1 3 33 3 0 1.324
1947 299 4 272 1 0 1 35 3 1 0.931
1948 300 1 69 1 1 1 33 3 1 1.098
1949 299 4 273 3 1 1 34 3 3 0.531
1950 299 4 274 0 1 0 33 3 0 0.507
1951 300 1 70 1 0 1 31 3 2 1.324
1952 299 4 275 2 1 0 33 3 2 0.634
1953 300 1 71 2 0 0 34 3 1 0.804
1954 299 4 276 1 1 2 35 3 2 0.725
1955 300 1 72 1 1 3 36 3 3 0.934
1956 299 4 277 3 1 3 37 3 3 0.848
1957 300 1 73 3 1 3 32 3 3 1.77
1958 299 4 278 2 0 3 32 3 3 0.572
1959 300 1 74 1 0 3 33 3 1 0.895
1960 299 4 279 3 1 2 32 3 3 0.573
1961 299 4 280 3 0 2 31 3 3 0.563
1962 300 1 75 0 0 1 31 3 1 1.667
1963 300 1 76 2 1 1 31 3 2 0.917
1964 299 4 281 2 1 2 33 3 2 1.264
1965 300 1 77 2 0 0 31 3 1 0.88
1966 299 4 282 0 1 3 33 3 0 0.5
1967 300 1 78 1 1 1 31 3 1 0.791
1968 299 4 283 2 1 0 33 3 1 1.027
1969 300 1 79 0 0 0 31 3 0 0.871
1970 299 4 284 2 1 1 32 3 1 0.644
1971 299 4 285 1 0 0 31 3 1 0.683
1972 300 1 80 2 1 2 33 3 2 0.962
1973 299 4 286 2 0 0 31 3 2 1.053
1974 300 1 81 1 1 3 36 3 1 0.763
1975 299 4 287 3 0 1 33 3 3 0.61
1976 300 1 82 3 0 3 31 3 3 1.244
1977 299 4 288 0 0 2 33 3 3 0.76
1978 300 1 83 3 0 3 31 3 2 1.171
1979 299 4 289 1 1 2 31 3 2 0.657
1980 300 1 84 3 0 3 32 3 3 1.105
1981 299 4 290 0 1 1 31 3 1 0.639
1982 300 1 85 3 1 3 31 3 2 0.948
1983 299 4 291 2 1 1 31 3 3 0.605
1984 299 4 292 3 0 3 32 3 3 0.678
1985 300 1 86 3 0 0 32 3 3 1.49
1986 300 1 87 2 0 0 31 3 1 0.921
1987 299 4 293 0 1 2 32 3 0 2.207
1988 300 1 88 0 0 3 32 3 1 1.047
1989 299 4 294 2 0 0 35 3 2 1.019
1990 300 1 89 0 0 1 33 3 1 0.93
1991 299 4 295 2 0 0 31 3 2 0.833
1992 300 1 90 1 0 0 31 3 3 1.144
1993 299 4 296 1 1 3 31 3 3 0.581
1994 300 1 91 2 0 2 32 3 3 1.119
1995 299 4 297 1 1 0 33 3 1 0.469
1996 300 1 92 3 1 2 31 3 2 0.885
1997 299 4 298 2 0 1 32 3 2 0.608
1998 300 1 93 0 1 1 31 3 1 0.963
1999 299 4 299 0 0 0 34 3 1 0.933
2000 299 4 300 1 0 2 32 3 1 0.562
2001 300 1 94 1 1 2 31 3 1 0.847
2002 299 4 301 3 1 0 31 3 3 1.008
2003 300 1 95 2 0 0 37 3 2 1.213
2004 299 4 302 3 0 3 31 3 3 0.823
2005 300 1 96 1 1 1 31 3 3 0.949
2006 299 4 303 1 0 3 31 3 1 0.644
2007 300 1 97 0 1 1 32 3 0 0.601
2008 299 4 304 2 1 2 31 3 2 0.878
2009 300 1 98 3 1 3 32 3 1 1.134
2010 299 4 305 3 1 2 36 3 2 0.944
2011 300 1 99 1 0 2 34 3 1 0.701
2012 299 4 306 0 1 2 32 3 0 0.516
2013 300 1 100 3 0 2 37 3 3 0.984
2014 299 4 307 1 1 0 33 3 1 0.771
2015 300 1 101 0 1 2 40 3 0 0.575
2016 299 4 308 3 0 0 32 3 3 0.578
2017 300 1 102 3 1 3 32 3 2 1.661
2018 299 4 309 3 0 3 33 3 3 0.68
2019 300 1 103 0 0 3 31 3 1 1.113
2020 299 4 310 2 0 1 40 3 2 0.619
2021 300 1 104 2 1 0 31 3 0 0.824
2022 299 4 311 1 0 3 31 3 1 0.608
2023 300 1 105 0 0 0 34 3 1 0.794
2024 299 4 312 2 1 1 31 3 2 0.619
2025 300 1 106 3 0 3 32 3 3 0.981
2026 299 4 313 0 0 0 32 3 0 0.608
2027 299 4 314 0 0 2 32 3 0 0.533
2028 300 1 107 3 0 0 32 3 1 0.758
2029 300 1 108 2 1 0 31 3 1 0.553
2030 299 4 315 3 1 1 35 3 3 0.596
2031 299 4 316 3 0 2 33 3 3 0.761
2032 300 1 109 1 1 2 32 3 1 0.692
2033 299 4 317 3 0 1 31 3 3 0.585
2034 300 1 110 0 0 3 34 3 3 1.039
2035 299 4 318 3 0 3 31 3 3 0.623
2036 300 1 111 0 0 2 32 3 0 0.577
2037 299 4 319 3 1 1 34 3 3 0.554
2038 300 1 112 2 1 3 31 3 1 0.831
2039 300 1 113 3 0 0 31 3 3 1.009
2040 300 1 114 3 1 2 31 3 3 1.039
2041 300 1 115 0 1 3 32 3 0 0.653
2042 300 1 116 3 1 1 32 3 2 1.296
2043 300 1 117 3 0 0 31 3 3 0.977
2044 300 1 118 1 1 2 36 3 0 0.897
2045 300 1 119 3 0 3 33 3 1 2.241
2046 300 1 120 1 1 0 32 3 1 1.199
2047 300 1 121 3 0 1 31 3 3 0.96
2048 300 1 122 1 0 0 33 3 3 0.97
2049 300 1 123 0 1 1 32 3 0 0.67
2050 300 1 124 0 1 3 37 3 3 1.008
2051 300 1 125 2 0 2 39 3 1 0.948
2052 300 1 126 3 0 2 33 3 3 0.905
2053 300 1 127 3 1 1 32 3 3 0.9
2054 300 2 128 3 0 2 32 3 3 0.799
2055 300 2 129 0 1 1 33 3 2 2.917
2056 300 2 130 0 0 2 35 3 3 0.86
2057 300 2 131 1 1 3 41 3 3 1.036
2058 300 2 132 1 1 0 31 3 1 2.061
2059 300 2 133 0 0 2 33 3 1 1.895
2060 300 2 134 3 0 1 31 3 3 0.915
2061 300 2 135 1 1 2 36 3 0 0.669
2062 300 2 136 1 0 1 33 3 1 0.653
2063 300 2 137 3 0 2 32 3 3 1.13
2064 300 2 138 3 1 0 32 3 3 0.996
2065 300 2 139 3 1 1 31 3 1 1.019
2066 300 2 140 2 0 0 32 3 1 1.19
2067 300 2 141 2 1 0 33 3 1 0.937
2068 300 2 142 0 1 2 35 3 3 1.566
2069 300 2 143 3 1 0 31 3 0 0.995
2070 300 2 144 3 1 2 32 3 0 0.854
2071 300 2 145 0 0 2 31 3 0 1.303
2072 300 2 146 1 1 0 31 3 1 0.651
2073 300 2 147 1 1 3 31 3 1 0.742
2074 300 2 148 2 0 1 43 3 3 1.063
2075 300 2 149 0 1 2 32 3 0 0.552
2076 300 2 150 3 0 0 33 3 3 0.976
2077 300 2 151 3 1 0 31 3 3 1.208
2078 300 2 152 2 0 3 31 3 3 0.545
2079 300 2 153 1 0 3 32 3 1 0.917
2080 300 2 154 3 0 1 31 3 1 0.601
2081 300 2 155 2 0 2 31 3 2 0.963
2082 300 2 156 1 0 1 33 3 2 0.653
2083 300 2 157 3 0 0 32 3 3 1.109
2084 300 2 158 2 1 2 31 3 1 0.936
2085 300 2 159 2 1 3 36 3 1 0.836
2086 300 2 160 0 0 0 37 3 0 0.526
2087 300 2 161 3 0 3 31 3 2 1.151
2088 300 2 162 2 0 2 32 3 1 0.613
2089 300 2 163 3 1 1 34 3 0 0.822
2090 300 2 164 0 1 3 31 3 1 0.942
2091 300 2 165 0 1 2 31 3 0 0.475
2092 300 2 166 3 1 3 34 3 1 0.628
2093 300 2 167 2 0 1 34 3 2 0.806
2094 300 2 168 0 1 3 31 3 0 0.523
2095 300 2 169 1 1 3 31 3 0 0.635
2096 300 2 170 1 1 3 31 3 2 0.483
2097 300 2 171 1 1 0 31 3 1 0.632
2098 300 2 172 0 1 3 31 3 0 0.492
2099 300 2 173 0 1 1 39 3 2 1.461
2100 300 2 174 0 1 0 34 3 1 0.479
2101 300 2 175 1 1 3 31 3 2 1.1
2102 300 2 176 0 0 0 32 3 0 0.509
2103 300 2 177 1 0 1 32 3 1 0.719
2104 300 2 178 3 1 1 31 3 3 0.975
2105 300 2 179 2 1 3 31 3 2 1.031
2106 300 2 180 0 1 1 37 3 3 0.973
2107 300 2 181 1 0 2 31 3 0 1.338
2108 300 2 182 1 0 2 32 3 3 2.442
2109 300 2 183 0 0 2 32 3 1 0.962
2110 300 2 184 1 1 3 33 3 2 0.75
2111 300 2 185 2 1 3 31 3 2 1.658
2112 300 2 186 3 0 0 32 3 3 1.01
2113 300 2 187 2 1 3 33 3 2 1.025
2114 300 2 188 3 1 1 32 3 3 1.087
2115 300 2 189 2 1 2 31 3 2 0.954
2116 300 2 190 3 0 2 34 3 3 1.132
2117 300 2 191 0 0 0 31 3 1 0.84
2118 300 3 192 3 1 0 32 3 2 1.167
2119 300 3 193 0 1 0 31 3 0 0.523
2120 300 3 194 1 0 3 32 3 -1 0.981
2121 300 3 195 2 0 3 32 3 2 1.005
2122 300 3 196 1 0 0 33 3 1 0.917
2123 300 3 197 2 1 0 38 3 2 0.792
2124 300 3 198 2 1 1 31 3 1 1.038
2125 300 3 199 1 0 3 33 3 1 0.928
2126 300 3 200 2 1 0 32 3 2 0.954
2127 300 3 201 2 1 1 37 3 1 0.98
2128 300 3 202 3 1 2 35 3 3 0.799
2129 300 3 203 1 1 3 32 3 1 0.973
2130 300 3 204 2 0 3 31 3 1 0.967
2131 300 3 205 2 0 2 32 3 3 1.092
2132 300 3 206 2 1 3 35 3 2 0.875
2133 300 3 207 3 1 2 32 3 3 0.902
2134 300 3 208 3 1 2 31 3 3 0.744
2135 300 3 209 1 1 0 33 3 -1 1.072
2136 300 3 210 0 1 0 31 3 1 0.853
2137 300 3 211 1 1 1 36 3 0 0.884
2138 300 3 212 1 0 0 31 3 1 0.653
2139 300 3 213 1 0 3 31 3 1 1.025
2140 300 3 214 1 0 1 33 3 1 2.345
2141 300 3 215 2 1 1 31 3 3 1.079
2142 300 3 216 1 0 1 36 3 1 0.784
2143 300 3 217 3 1 1 35 3 3 0.967
2144 300 3 218 3 1 0 36 3 3 0.743
2145 300 3 219 1 1 0 32 3 1 0.847
2146 300 3 220 3 0 1 38 3 3 0.829
2147 300 3 221 1 0 3 31 3 1 0.731
2148 300 3 222 2 0 2 31 3 1 1.406
2149 300 3 223 3 0 3 31 3 1 0.795
2150 300 3 224 2 1 3 31 3 0 1.469
2151 300 3 225 1 1 3 31 3 2 0.862
2152 300 3 226 2 0 0 32 3 1 1.015
2153 300 3 227 3 1 2 31 3 3 0.905
2154 300 3 228 0 0 3 34 3 3 0.965
2155 300 3 229 2 0 3 31 3 1 1.37
2156 300 3 230 1 0 3 35 3 1 0.721
2157 300 3 231 2 0 0 34 3 1 0.643
2158 300 3 232 0 0 0 32 3 0 1.268
2159 300 3 233 0 1 3 32 3 0 0.737
2160 300 3 234 2 1 3 32 3 1 0.961
2161 300 3 235 0 1 0 37 3 0 0.731
2162 300 3 236 2 1 2 34 3 0 0.564
2163 300 3 237 2 1 1 32 3 2 0.894
2164 300 3 238 1 0 2 31 3 1 0.738
2165 300 3 239 2 1 1 34 3 1 0.602
2166 300 3 240 3 1 3 31 3 3 1.339
2167 300 3 241 1 1 2 31 3 1 0.678
2168 300 3 242 0 0 2 32 3 0 0.642
2169 300 3 243 1 0 0 33 3 1 1.071
2170 300 3 244 2 1 0 33 3 3 1.035
2171 300 3 245 0 1 2 31 3 0 0.908
2172 300 3 246 2 0 2 33 3 1 0.68
2173 300 3 247 1 0 0 32 3 1 0.775
2174 300 3 248 2 1 2 32 3 0 0.558
2175 300 3 249 2 1 0 36 3 3 0.816
2176 300 3 250 2 1 0 33 3 1 0.722
2177 300 3 251 2 1 1 32 3 0 0.789
2178 300 3 252 3 0 1 32 3 3 0.841
2179 300 3 253 0 1 3 32 3 0 0.973
2180 300 3 254 3 0 3 31 3 3 1.07
2181 300 3 255 1 1 1 32 3 1 0.938
2182 300 4 256 2 1 0 43 3 1 0.696
2183 300 4 257 3 0 1 33 3 3 0.96
2184 300 4 258 1 1 2 33 3 0 0.753
2185 300 4 259 2 0 1 32 3 1 3.013
2186 300 4 260 2 1 2 32 3 2 2.367
2187 300 4 261 0 1 0 33 3 0 0.637
2188 300 4 262 0 1 2 34 3 0 0.505
2189 300 4 263 1 0 1 31 3 0 0.587
2190 300 4 264 0 0 3 31 3 1 0.989
2191 300 4 265 0 0 0 31 3 0 0.769
2192 300 4 266 0 0 1 41 3 0 0.498
2193 300 4 267 0 0 0 31 3 0 0.436
2194 300 4 268 1 1 2 35 3 0 0.591
2195 300 4 269 2 0 2 34 3 1 1.057
2196 300 4 270 0 0 2 33 3 2 0.603
2197 300 4 271 0 1 0 33 3 0 0.883
2198 300 4 272 2 0 3 36 3 1 0.592
2199 300 4 273 3 0 2 33 3 3 1.018
2200 300 4 274 1 1 0 31 3 1 0.552
2201 300 4 275 2 0 1 32 3 2 0.961
2202 300 4 276 2 0 1 35 3 1 1.203
2203 300 4 277 1 0 2 33 3 2 1.031
2204 300 4 278 2 0 3 31 3 3 0.562
2205 300 4 279 1 1 2 31 3 1 0.708
2206 300 4 280 2 0 0 32 3 1 1.111
2207 300 4 281 3 0 0 31 3 2 0.511
2208 300 4 282 3 1 3 31 3 3 0.731
2209 300 4 283 2 0 1 32 3 2 0.837
2210 300 4 284 2 0 2 34 3 3 1.171
2211 300 4 285 1 1 0 31 3 0 0.623
2212 300 4 286 3 1 0 31 3 2 0.967
2213 300 4 287 2 0 3 34 3 3 0.948
2214 300 4 288 1 0 0 31 3 3 0.922
2215 300 4 289 1 1 2 33 3 0 0.535
2216 300 4 290 0 1 0 34 3 3 1.346
2217 300 4 291 2 1 1 31 3 1 0.825
2218 300 4 292 1 0 2 34 3 1 1.155
2219 300 4 293 3 1 3 32 3 3 0.996
2220 300 4 294 2 1 0 35 3 1 0.787
2221 300 4 295 3 0 3 37 3 3 1.166
2222 300 4 296 0 0 2 34 3 0 0.864
2223 300 4 297 3 0 2 36 3 3 0.83
2224 300 4 298 1 0 0 31 3 3 0.892
2225 300 4 299 1 0 1 33 3 1 1.124
2226 300 4 300 0 1 2 31 3 0 0.679
2227 300 4 301 0 1 0 43 3 0 1.881
2228 300 4 302 2 0 3 35 3 1 0.786
2229 300 4 303 1 0 2 31 3 0 0.693
2230 300 4 304 1 0 2 35 3 1 0.604
2231 300 4 305 3 1 1 35 3 1 0.769
2232 300 4 306 1 1 1 31 3 0 0.835
2233 300 4 307 1 1 2 31 3 0 0.611
2234 300 4 308 0 0 3 33 3 0 1.133
2235 300 4 309 1 1 1 31 3 0 1.077
2236 300 4 310 3 0 0 36 3 3 1.151
2237 300 4 311 3 0 1 32 3 3 1.145
2238 300 4 312 0 1 0 31 3 1 0.739
2239 300 4 313 2 0 1 36 3 3 1.088
2240 300 4 314 1 1 1 31 3 1 0.967
2241 300 4 315 3 1 3 36 3 0 1.335
2242 300 4 316 2 1 1 31 3 2 1.157
2243 300 4 317 0 0 1 33 3 0 0.744
2244 300 4 318 3 0 1 32 3 3 1.13
2245 300 4 319 1 0 1 32 3 1 0.846
2246 302 0 0 0 0 2 32 3 3 0.596
2247 302 0 1 3 1 3 32 3 3 0.486
2248 302 0 2 2 1 2 33 3 2 0.647
2249 302 0 3 0 1 0 34 3 1 0.803
2250 302 0 4 3 1 3 31 3 3 0.445
2251 302 0 5 1 1 0 39 3 1 0.593
2252 302 0 6 2 0 2 37 3 3 0.584
2253 302 0 7 2 0 2 31 3 2 0.516
2254 302 0 8 0 1 3 35 3 0 0.501
2255 302 0 9 2 0 0 41 3 2 0.512
2256 302 0 10 2 1 0 33 3 2 0.433
2257 302 0 11 0 1 2 32 3 3 0.469
2258 302 0 12 3 1 0 31 3 2 1.243
2259 302 0 13 0 1 3 33 3 1 0.805
2260 302 0 14 2 1 2 33 3 2 0.559
2261 302 0 15 2 1 0 33 3 2 0.51
2262 302 0 16 2 1 1 31 3 2 0.511
2263 302 0 17 0 0 1 31 3 3 0.57
2264 302 0 18 2 0 2 33 3 2 0.645
2265 302 0 19 2 1 3 31 3 1 0.641
2266 302 0 20 1 0 3 31 3 1 0.587
2267 302 0 21 1 0 3 34 3 1 0.578
2268 302 0 22 3 0 3 31 3 3 0.538
2269 302 0 23 2 0 0 35 3 2 0.58
2270 302 0 24 3 0 1 36 3 3 0.556
2271 302 0 25 3 1 0 32 3 3 0.441
2272 302 0 26 1 1 0 38 3 1 0.781
2273 302 0 27 3 1 0 33 3 3 0.388
2274 302 0 28 2 1 0 31 3 2 0.617
2275 302 0 29 2 0 3 31 3 2 0.672
2276 302 0 30 0 1 2 33 3 1 0.651
2277 302 0 31 1 0 3 37 3 1 0.564
2278 302 0 32 2 1 2 31 3 2 0.531
2279 302 0 33 0 1 1 31 3 3 0.468
2280 302 0 34 1 1 3 31 3 1 0.49
2281 302 0 35 1 1 0 34 3 1 0.46
2282 302 0 36 3 1 1 39 3 3 0.43
2283 302 0 37 0 0 1 31 3 0 0.556
2284 302 0 38 0 1 3 33 3 3 0.603
2285 302 0 39 2 0 3 31 3 2 0.533
2286 302 0 40 1 0 0 32 3 1 0.495
2287 302 0 41 1 1 0 31 3 1 0.46
2288 302 0 42 1 0 0 33 3 1 0.52
2289 302 0 43 0 1 1 33 3 0 0.409
2290 302 0 44 1 1 3 31 3 0 3.485
2291 302 0 45 3 1 2 35 3 -1 0.408
2292 302 0 46 3 1 0 34 3 3 0.465
2293 302 0 47 2 0 0 31 3 3 0.541
2294 302 0 48 1 0 1 34 3 1 0.682
2295 302 0 49 0 1 3 32 3 1 0.517
2296 302 0 50 1 0 3 33 3 1 0.611
2297 302 0 51 3 0 2 31 3 3 0.522
2298 302 0 52 1 0 2 37 3 1 0.564
2299 302 0 53 1 0 3 31 3 1 0.541
2300 302 0 54 2 1 1 33 3 3 0.46
2301 302 0 55 3 1 1 32 3 3 0.37
2302 302 0 56 2 1 3 31 3 1 0.472
2303 302 0 57 3 1 0 31 3 3 0.43
2304 302 0 58 3 0 3 31 3 3 0.603
2305 302 0 59 0 0 2 37 3 0 0.706
2306 302 0 60 3 0 1 34 3 3 0.485
2307 302 0 61 0 1 2 31 3 0 0.392
2308 302 0 62 0 1 2 31 3 0 0.349
2309 302 0 63 3 0 0 32 3 3 0.509
2310 302 1 64 2 0 1 32 3 2 0.59
2311 302 1 65 3 1 1 33 3 3 0.396
2312 302 1 66 1 0 1 32 3 1 0.538
2313 302 1 67 1 1 2 36 3 1 0.474
2314 302 1 68 0 1 2 36 3 0 0.348
2315 302 1 69 0 1 0 37 3 0 0.291
2316 302 1 70 0 0 0 35 3 0 0.453
2317 302 1 71 1 1 3 31 3 1 0.52
2318 302 1 72 1 1 1 34 3 1 0.536
2319 302 1 73 3 1 3 34 3 3 0.472
2320 302 1 74 2 0 3 33 3 3 0.58
2321 302 1 75 0 0 2 31 3 0 0.576
2322 302 1 76 3 1 2 35 3 3 0.446
2323 302 1 77 2 1 1 34 3 2 0.753
2324 302 1 78 3 0 1 37 3 3 0.514
2325 302 1 79 1 0 0 32 3 1 0.669
2326 302 1 80 3 1 3 31 3 3 0.424
2327 302 1 81 1 1 1 33 3 0 0.444
2328 302 1 82 3 0 1 31 3 3 0.556
2329 302 1 83 1 0 2 34 3 1 0.629
2330 302 1 84 2 0 3 34 3 3 0.683
2331 302 1 85 1 1 2 31 3 1 0.49
2332 302 1 86 3 0 2 31 3 3 0.533
2333 302 1 87 3 0 2 33 3 3 0.479
2334 302 1 88 2 1 3 32 3 2 0.545
2335 302 1 89 2 1 2 31 3 2 0.464
2336 302 1 90 2 1 2 33 3 2 0.451
2337 302 1 91 1 0 0 37 3 1 0.608
2338 302 1 92 0 1 0 34 3 0 0.365
2339 302 1 93 0 1 2 31 3 0 0.339
2340 302 1 94 3 0 2 37 3 3 0.5
2341 302 1 95 2 1 1 31 3 2 0.485
2342 302 1 96 3 1 3 34 3 3 0.423
2343 302 1 97 0 0 3 33 3 0 0.676
2344 302 1 98 2 0 0 34 3 2 0.761
2345 302 1 99 3 0 0 32 3 3 0.394
2346 302 1 100 0 0 1 31 3 0 0.473
2347 302 1 101 2 0 0 32 3 2 0.517
2348 302 1 102 2 0 2 31 3 2 0.591
2349 302 1 103 1 0 2 33 3 3 0.487
2350 302 1 104 3 0 0 31 3 3 0.549
2351 302 1 105 0 0 3 31 3 0 0.574
2352 302 1 106 0 1 2 31 3 0 0.333
2353 302 1 107 3 0 3 31 3 3 0.478
2354 302 1 108 1 0 2 31 3 1 0.682
2355 302 1 109 2 0 3 36 3 2 0.558
2356 302 1 110 1 1 3 31 3 1 0.605
2357 302 1 111 1 1 1 31 3 1 0.491
2358 302 1 112 0 1 1 32 3 0 0.348
2359 302 1 113 3 1 0 31 3 3 0.499
2360 302 1 114 0 0 2 32 3 0 0.622
2361 302 1 115 0 0 2 32 3 0 0.405
2362 302 1 116 2 0 2 31 3 2 0.531
2363 302 1 117 1 0 1 35 3 0 0.397
2364 302 1 118 1 1 2 31 3 0 0.421
2365 302 1 119 0 0 2 36 3 2 0.678
2366 302 1 120 3 1 2 31 3 3 0.468
2367 302 1 121 2 1 0 35 3 2 0.502
2368 302 1 122 0 1 1 31 3 0 0.327
2369 302 1 123 1 0 2 31 3 1 0.52
2370 302 1 124 0 0 3 33 3 2 0.546
2371 302 1 125 2 1 1 32 3 2 0.55
2372 302 1 126 2 0 1 32 3 2 0.479
2373 302 1 127 0 0 3 34 3 3 0.554
2374 302 2 128 3 1 3 32 3 3 0.439
2375 302 2 129 3 0 1 31 3 3 0.452
2376 302 2 130 0 0 1 31 3 0 0.432
2377 302 2 131 1 1 2 33 3 1 0.548
2378 302 2 132 2 0 3 32 3 2 0.589
2379 302 2 133 3 1 0 36 3 3 0.483
2380 302 2 134 2 1 3 32 3 3 0.405
2381 302 2 135 1 0 3 33 3 1 0.631
2382 302 2 136 2 1 0 31 3 2 0.484
2383 302 2 137 1 1 1 31 3 1 0.582
2384 302 2 138 0 0 1 36 3 0 0.43
2385 302 2 139 2 0 3 31 3 2 0.507
2386 302 2 140 1 0 3 33 3 1 0.598
2387 302 2 141 1 1 3 32 3 1 0.58
2388 302 2 142 3 0 1 31 3 3 0.492
2389 302 2 143 2 1 2 31 3 2 0.477
2390 302 2 144 2 0 1 35 3 2 0.553
2391 302 2 145 3 0 3 32 3 3 0.546
2392 302 2 146 1 0 0 31 3 1 0.523
2393 302 2 147 3 0 0 36 3 3 0.469
2394 302 2 148 1 0 3 32 3 1 0.497
2395 302 2 149 0 1 1 31 3 0 0.371
2396 302 2 150 1 0 0 33 3 0 0.562
2397 302 2 151 0 0 2 32 3 2 0.59
2398 302 2 152 0 0 3 31 3 0 0.425
2399 302 2 153 3 0 1 32 3 3 0.551
2400 302 2 154 3 1 2 32 3 3 0.47
2401 302 2 155 0 0 3 31 3 2 0.882
2402 302 2 156 3 1 2 32 3 3 0.41
2403 302 2 157 1 1 0 32 3 0 0.43
2404 302 2 158 2 1 2 31 3 2 0.438
2405 302 2 159 1 1 1 45 3 1 0.553
2406 302 2 160 0 1 1 31 3 0 0.503
2407 302 2 161 2 0 1 32 3 2 0.594
2408 302 2 162 0 1 3 37 3 0 0.4
2409 302 2 163 3 1 1 31 3 3 0.885
2410 302 2 164 0 1 1 37 3 0 0.312
2411 302 2 165 3 0 2 32 3 3 0.681
2412 302 2 166 1 1 0 37 3 0 0.788
2413 302 2 167 1 0 1 33 3 1 0.552
2414 302 2 168 0 1 1 31 3 0 0.28
2415 302 2 169 0 1 1 31 3 0 0.289
2416 302 2 170 0 0 0 32 3 0 0.499
2417 302 2 171 2 1 1 35 3 2 0.548
2418 302 2 172 2 0 3 31 3 2 0.509
2419 302 2 173 1 0 0 33 3 1 0.568
2420 302 2 174 2 1 3 33 3 2 0.534
2421 302 2 175 1 0 1 32 3 0 0.432
2422 302 2 176 3 0 1 40 3 3 0.513
2423 302 2 177 1 0 1 32 3 1 0.492
2424 302 2 178 1 0 2 31 3 3 0.519
2425 302 2 179 3 1 1 32 3 3 0.427
2426 302 2 180 3 1 3 31 3 3 0.399
2427 302 2 181 0 0 3 32 3 0 0.429
2428 302 2 182 1 1 1 32 3 3 0.577
2429 302 2 183 0 1 0 33 3 0 0.387
2430 302 2 184 1 1 0 34 3 1 0.549
2431 302 2 185 0 1 3 32 3 0 0.309
2432 302 2 186 3 0 3 39 3 2 0.807
2433 302 2 187 2 0 0 35 3 0 0.506
2434 302 2 188 3 1 2 33 3 3 0.431
2435 302 2 189 3 0 3 32 3 3 0.492
2436 302 2 190 0 1 3 33 3 0 0.366
2437 302 2 191 2 0 1 33 3 2 0.653
2438 302 3 192 3 0 0 31 3 3 0.514
2439 302 3 193 0 0 2 31 3 0 0.668
2440 302 3 194 0 1 3 31 3 0 0.327
2441 302 3 195 2 1 1 31 3 2 0.415
2442 302 3 196 0 1 0 32 3 0 0.355
2443 302 3 197 0 0 3 32 3 3 1.075
2444 302 3 198 3 0 3 31 3 3 0.717
2445 302 3 199 2 1 3 31 3 2 0.438
2446 302 3 200 1 0 2 39 3 1 0.547
2447 302 3 201 3 1 2 31 3 3 0.451
2448 302 3 202 1 1 0 36 3 1 0.518
2449 302 3 203 0 0 0 31 3 0 0.544
2450 302 3 204 2 0 3 31 3 2 0.595
2451 302 3 205 0 0 3 31 3 0 0.555
2452 302 3 206 1 0 0 31 3 1 0.595
2453 302 3 207 2 1 3 35 3 2 0.561
2454 302 3 208 2 0 2 31 3 2 0.65
2455 302 3 209 0 0 2 32 3 0 0.384
2456 302 3 210 0 0 3 32 3 0 0.463
2457 302 3 211 0 0 0 35 3 1 0.683
2458 302 3 212 0 0 1 36 3 0 0.451
2459 302 3 213 3 1 1 31 3 3 0.454
2460 302 3 214 2 0 1 31 3 2 0.546
2461 302 3 215 0 1 2 32 3 0 0.338
2462 302 3 216 1 1 2 31 3 0 0.409
2463 302 3 217 0 0 0 32 3 0 0.891
2464 302 3 218 2 1 2 32 3 2 0.654
2465 302 3 219 1 1 1 32 3 1 0.488
2466 302 3 220 2 1 0 33 3 2 0.503
2467 302 3 221 1 1 3 33 3 1 0.488
2468 302 3 222 3 1 2 32 3 3 0.457
2469 302 3 223 0 0 0 32 3 0 0.454
2470 302 3 224 0 1 3 31 3 0 0.328
2471 302 3 225 2 1 3 33 3 2 0.56
2472 302 3 226 2 0 3 33 3 2 0.585
2473 302 3 227 1 0 2 32 3 1 0.529
2474 302 3 228 2 0 1 31 3 2 0.571
2475 302 3 229 0 0 0 31 3 0 0.387
2476 302 3 230 3 0 2 32 3 3 0.593
2477 302 3 231 2 1 0 33 3 2 0.655
2478 302 3 232 1 1 2 32 3 1 0.603
2479 302 3 233 1 1 1 34 3 1 0.616
2480 302 3 234 2 1 1 31 3 2 0.502
2481 302 3 235 3 0 0 32 3 3 0.448
2482 302 3 236 3 1 1 32 3 3 0.515
2483 302 3 237 3 0 0 33 3 3 0.494
2484 302 3 238 0 0 2 37 3 2 0.553
2485 302 3 239 0 1 2 31 3 0 0.332
2486 302 3 240 0 1 0 31 3 0 0.291
2487 302 3 241 1 0 0 31 3 1 0.565
2488 302 3 242 2 0 2 34 3 2 0.462
2489 302 3 243 2 0 2 39 3 2 0.426
2490 302 3 244 2 1 2 31 3 2 0.462
2491 302 3 245 0 1 0 33 3 3 0.736
2492 302 3 246 3 0 2 40 3 3 0.518
2493 302 3 247 2 1 0 32 3 2 0.47
2494 302 3 248 3 0 2 43 3 2 0.466
2495 302 3 249 1 0 0 32 3 1 0.61
2496 302 3 250 0 0 1 33 3 0 0.793
2497 302 3 251 3 0 1 31 3 3 0.393
2498 302 3 252 3 1 1 31 3 3 0.686
2499 302 3 253 2 1 1 31 3 2 0.425
2500 302 3 254 0 1 0 31 3 3 0.621
2501 302 3 255 2 1 3 31 3 1 0.605
2502 302 4 256 0 0 1 31 3 0 0.394
2503 302 4 257 1 0 1 32 3 1 0.489
2504 302 4 258 0 1 1 32 3 2 0.842
2505 302 4 259 3 1 1 31 3 3 0.403
2506 302 4 260 3 1 2 32 3 3 0.376
2507 302 4 261 2 1 3 31 3 2 0.557
2508 302 4 262 3 0 3 36 3 3 0.438
2509 302 4 263 2 0 0 31 3 2 0.483
2510 302 4 264 0 1 3 34 3 0 0.421
2511 302 4 265 3 0 0 35 3 3 0.434
2512 302 4 266 1 0 3 38 3 3 0.447
2513 302 4 267 1 1 2 31 3 1 0.47
2514 302 4 268 2 0 1 31 3 2 0.45
2515 302 4 269 3 1 3 31 3 3 0.421
2516 302 4 270 3 0 2 31 3 3 0.467
2517 302 4 271 3 1 2 37 3 3 0.501
2518 302 4 272 2 0 0 32 3 2 0.608
2519 302 4 273 1 0 1 32 3 1 0.519
2520 302 4 274 1 1 2 31 3 1 0.439
2521 302 4 275 0 1 2 34 3 0 0.41
2522 302 4 276 2 0 0 33 3 0 0.567
2523 302 4 277 3 0 2 34 3 3 0.467
2524 302 4 278 3 1 0 33 3 1 0.71
2525 302 4 279 2 1 2 33 3 3 0.403
2526 302 4 280 1 1 1 31 3 1 0.539
2527 302 4 281 1 1 0 31 3 1 0.491
2528 302 4 282 1 0 1 31 3 1 0.47
2529 302 4 283 2 1 0 31 3 0 0.472
2530 302 4 284 3 1 0 35 3 3 0.574
2531 302 4 285 0 1 0 33 3 0 0.348
2532 302 4 286 2 0 1 32 3 2 0.573
2533 302 4 287 2 1 0 33 3 2 0.443
2534 302 4 288 3 0 0 32 3 3 0.488
2535 302 4 289 1 0 1 37 3 1 0.499
2536 302 4 290 1 1 3 31 3 2 0.613
2537 302 4 291 1 1 3 34 3 1 0.646
2538 302 4 292 1 1 2 31 3 1 0.402
2539 302 4 293 3 0 1 31 3 3 0.464
2540 302 4 294 0 0 0 35 3 0 0.412
2541 302 4 295 3 1 3 32 3 3 0.465
2542 302 4 296 3 1 1 32 3 3 0.436
2543 302 4 297 2 0 2 33 3 2 0.576
2544 302 4 298 0 0 0 31 3 0 0.408
2545 302 4 299 2 1 1 31 3 3 0.605
2546 302 4 300 3 0 0 31 3 3 0.456
2547 302 4 301 1 1 0 32 3 1 0.426
2548 302 4 302 1 1 1 34 3 1 0.59
2549 302 4 303 2 0 0 36 3 1 0.486
2550 302 4 304 1 0 2 35 3 3 0.548
2551 302 4 305 1 1 2 33 3 1 0.456
2552 302 4 306 3 1 0 31 3 3 0.506
2553 302 4 307 3 0 3 31 3 3 0.676
2554 302 4 308 1 1 3 33 3 1 0.495
2555 302 4 309 2 0 2 31 3 3 0.49
2556 302 4 310 0 0 1 36 3 3 0.537
2557 302 4 311 2 0 1 32 3 2 0.422
2558 302 4 312 0 0 0 31 3 0 0.419
2559 302 4 313 3 1 3 32 3 3 0.455
2560 302 4 314 1 1 3 31 3 1 0.522
2561 302 4 315 3 0 3 32 3 3 0.452
2562 302 4 316 0 1 0 31 3 0 0.711
2563 302 4 317 0 0 1 35 3 0 0.378
2564 302 4 318 1 0 3 40 3 1 0.57
2565 302 4 319 1 0 2 31 3 1 0.418
