datID sessionID block trial length correctResp resp rt
1 445 0 0 99.999 5 4 2.181
2 445 0 1 99.999 4 5 1.082
3 445 0 2 99.999 6 7 2.67
4 445 0 3 99.999 1 1 1.756
5 445 0 4 99.999 6 6 2.846
6 445 0 5 99.999 2 2 1.357
7 445 0 6 99.999 1 1 0.814
8 445 0 7 99.999 1 1 0.927
9 445 0 8 99.999 7 7 1.437
10 445 0 9 99.999 3 3 1.438
11 445 0 10 99.999 2 2 0.996
12 445 0 11 99.999 1 1 0.726
13 445 0 12 99.999 7 7 1.44
14 445 0 13 99.999 4 5 2.564
15 445 0 14 99.999 5 6 1.182
16 445 0 15 99.999 2 2 1.421
17 445 0 16 99.999 6 6 1.486
18 445 0 17 99.999 6 6 0.929
19 445 0 18 99.999 3 3 2.158
20 445 0 19 99.999 7 7 1.336
21 445 0 20 99.999 6 6 0.692
22 445 0 21 99.999 4 4 1.138
23 445 0 22 99.999 1 1 1.236
24 445 0 23 99.999 4 4 1.638
25 445 0 24 99.999 4 4 0.929
26 445 0 25 99.999 3 3 1.158
27 445 0 26 99.999 6 6 1.267
28 445 0 27 99.999 5 5 2.748
29 445 0 28 99.999 7 7 1.303
30 445 0 29 99.999 7 7 0.983
31 445 0 30 99.999 4 4 2.606
32 445 0 31 99.999 2 2 1.398
33 445 0 32 99.999 5 5 2.082
34 445 0 33 99.999 3 3 1.569
35 445 0 34 99.999 5 5 2.209
36 445 0 35 99.999 3 3 1.283
37 445 0 36 99.999 5 5 1.7
38 445 0 37 99.999 5 5 0.661
39 445 0 38 99.999 6 6 1.093
40 445 0 39 99.999 7 7 1.14
41 445 0 40 99.999 5 6 1.064
42 445 0 41 99.999 1 1 1.218
43 445 0 42 99.999 7 7 1.331
44 445 0 43 99.999 7 7 0.958
45 445 0 44 99.999 7 7 0.612
46 445 0 45 99.999 4 4 1.713
47 445 0 46 99.999 5 5 0.948
48 445 0 47 99.999 3 3 1.586
49 445 0 48 99.999 1 1 1.396
50 445 0 49 99.999 2 2 0.832
51 445 0 50 99.999 1 1 0.623
52 445 0 51 99.999 6 6 2.798
53 445 0 52 99.999 3 3 1.278
54 445 0 53 99.999 7 7 1.309
55 445 0 54 99.999 2 2 1.469
56 445 0 55 99.999 4 4 1.986
57 445 0 56 99.999 2 2 1.422
58 445 0 57 99.999 4 3 1.039
59 445 0 58 99.999 6 6 2.127
60 445 0 59 99.999 5 5 1.198
61 445 0 60 99.999 7 7 1.135
62 445 0 61 99.999 3 3 1.405
63 445 0 62 99.999 6 6 1.341
64 445 0 63 99.999 6 6 0.85
65 445 0 64 99.999 2 2 1.534
66 445 0 65 99.999 2 2 0.801
67 445 0 66 99.999 2 2 0.671
68 445 0 67 99.999 2 2 0.638
69 445 0 68 99.999 5 4 2.914
70 445 0 69 99.999 7 7 1.617
71 445 1 0 99.999 5 5 3.515
72 445 1 1 99.999 6 6 0.942
73 445 1 2 99.999 7 7 0.77
74 445 1 3 99.999 6 6 0.846
75 445 1 4 99.999 7 7 0.606
76 445 1 5 99.999 1 1 0.974
77 445 1 6 99.999 5 5 2.322
78 445 1 7 99.999 3 3 1.379
79 445 1 8 99.999 2 2 1.038
80 445 1 9 99.999 1 1 0.799
81 445 1 10 99.999 1 1 0.589
82 445 1 11 99.999 5 5 2.127
83 445 1 12 99.999 1 1 1.298
84 445 1 13 99.999 4 3 1.373
85 445 1 14 99.999 2 3 2.066
86 445 1 15 99.999 5 5 1.611
87 445 1 16 99.999 2 2 1.187
88 445 1 17 99.999 5 5 1.821
89 445 1 18 99.999 2 2 1.171
90 445 1 19 99.999 4 4 2.239
91 445 1 20 99.999 2 2 1.423
92 445 1 21 99.999 7 7 1.361
93 445 1 22 99.999 5 5 1.742
94 445 1 23 99.999 7 7 1.086
95 445 1 24 99.999 1 1 1.15
96 445 1 25 99.999 1 1 0.574
97 445 1 26 99.999 3 3 1.261
98 445 1 27 99.999 5 5 2.335
99 445 1 28 99.999 3 3 1.726
100 445 1 29 99.999 3 3 0.622
101 445 1 30 99.999 3 3 0.627
102 445 1 31 99.999 6 5 1.63
103 445 1 32 99.999 5 5 0.942
104 445 1 33 99.999 6 6 0.7
105 445 1 34 99.999 4 5 1.092
106 445 1 35 99.999 1 1 1.295
107 445 1 36 99.999 3 3 1.022
108 445 1 37 99.999 3 3 0.702
109 445 1 38 99.999 1 1 0.914
110 445 1 39 99.999 6 6 1.595
111 445 1 40 99.999 5 5 0.975
112 445 1 41 99.999 5 5 0.781
113 445 1 42 99.999 4 5 0.72
114 445 1 43 99.999 1 1 1.742
115 445 1 44 99.999 5 5 1.747
116 445 1 45 99.999 2 2 1.166
117 445 1 46 99.999 4 4 1.107
118 445 1 47 99.999 7 7 1.216
119 445 1 48 99.999 3 3 1.374
120 445 1 49 99.999 4 4 1.118
121 445 1 50 99.999 6 6 1.085
122 445 1 51 99.999 6 6 1.055
123 445 1 52 99.999 3 3 1.284
124 445 1 53 99.999 7 7 1.389
125 445 1 54 99.999 4 4 1.663
126 445 1 55 99.999 3 3 0.964
127 445 1 56 99.999 6 6 1.71
128 445 1 57 99.999 3 3 1.124
129 445 1 58 99.999 4 4 0.942
130 445 1 59 99.999 7 7 1.251
131 445 1 60 99.999 2 2 1.058
132 445 1 61 99.999 5 5 1.933
133 445 1 62 99.999 4 4 0.765
134 445 1 63 99.999 1 2 1.421
135 445 1 64 99.999 1 2 0.67
136 445 1 65 99.999 4 4 1.214
137 445 1 66 99.999 3 3 0.877
138 445 1 67 99.999 7 7 1.678
139 445 1 68 99.999 2 2 1.313
140 445 1 69 99.999 1 1 0.878
141 445 2 0 99.999 6 6 2.075
142 445 2 1 99.999 2 2 1.426
143 445 2 2 99.999 2 2 0.684
144 445 2 3 99.999 2 2 0.476
145 445 2 4 99.999 2 2 0.557
146 445 2 5 99.999 7 7 1.149
147 445 2 6 99.999 6 6 0.865
148 445 2 7 99.999 6 6 0.589
149 445 2 8 99.999 5 6 0.463
150 445 2 9 99.999 3 3 1.342
151 445 2 10 99.999 3 3 0.574
152 445 2 11 99.999 3 3 0.532
153 445 2 12 99.999 4 4 0.958
154 445 2 13 99.999 1 1 1.052
155 445 2 14 99.999 1 1 0.446
156 445 2 15 99.999 2 2 0.813
157 445 2 16 99.999 5 5 1.789
158 445 2 17 99.999 3 3 1.14
159 445 2 18 99.999 4 4 1.229
160 445 2 19 99.999 7 7 1.182
161 445 2 20 99.999 3 3 1.933
162 445 2 21 99.999 6 6 1.741
163 445 2 22 99.999 6 6 0.564
164 445 2 23 99.999 6 6 0.494
165 445 2 24 99.999 4 4 1.15
166 445 2 25 99.999 1 1 1.3
167 445 2 26 99.999 4 4 1.454
168 445 2 27 99.999 1 1 1.154
169 445 2 28 99.999 3 3 1.166
170 445 2 29 99.999 2 2 0.993
171 445 2 30 99.999 1 1 0.766
172 445 2 31 99.999 7 7 1.501
173 445 2 32 99.999 3 3 2.03
174 445 2 33 99.999 4 5 1.647
175 445 2 34 99.999 4 4 0.941
176 445 2 35 99.999 1 1 1.118
177 445 2 36 99.999 6 6 1.278
178 445 2 37 99.999 7 7 0.67
179 445 2 38 99.999 6 6 0.829
180 445 2 39 99.999 5 6 1.198
181 445 2 40 99.999 5 5 0.896
182 445 2 41 99.999 7 7 0.974
183 445 2 42 99.999 2 2 1.571
184 445 2 43 99.999 1 1 0.573
185 445 2 44 99.999 3 3 0.672
186 445 2 45 99.999 3 3 1.133
187 445 2 46 99.999 7 7 1.278
188 445 2 47 99.999 7 7 0.781
189 445 2 48 99.999 4 4 2.125
190 445 2 49 99.999 1 1 1.325
191 445 2 50 99.999 7 7 1.628
192 445 2 51 99.999 5 5 2.08
193 445 2 52 99.999 7 7 1.901
194 445 2 53 99.999 4 4 2.045
195 445 2 54 99.999 7 7 1.229
196 445 2 55 99.999 2 2 1.166
197 445 2 56 99.999 4 4 1.47
198 445 2 57 99.999 5 5 1.02
199 445 2 58 99.999 5 5 0.542
200 445 2 59 99.999 3 3 1.249
201 445 2 60 99.999 4 4 0.878
202 445 2 61 99.999 2 2 1.216
203 445 2 62 99.999 2 2 0.544
204 445 2 63 99.999 6 6 1.933
205 445 2 64 99.999 1 1 1.053
206 445 2 65 99.999 6 6 1.407
207 445 2 66 99.999 4 4 3.465
208 445 2 67 99.999 1 1 1.021
209 445 2 68 99.999 2 2 0.814
210 445 2 69 99.999 6 6 1.182
211 446 0 0 99.999 1 1 1.365
212 446 0 1 99.999 4 3 2.905
213 446 0 2 99.999 5 5 1.323
214 446 0 3 99.999 5 5 0.893
215 446 0 4 99.999 6 6 1.25
216 446 0 5 99.999 4 4 1.261
217 446 0 6 99.999 4 4 0.684
218 446 0 7 99.999 3 3 2.529
219 446 0 8 99.999 1 1 5.134
220 446 0 9 99.999 4 4 5.156
221 446 0 10 99.999 3 3 1.181
222 446 0 11 99.999 4 4 2.291
223 446 0 12 99.999 6 7 2.563
224 446 0 13 99.999 2 2 1.371
225 446 0 14 99.999 6 6 2.526
226 446 0 15 99.999 5 4 12.019
227 446 0 16 99.999 3 2 6.939
228 446 0 17 99.999 4 4 1.508
229 446 0 18 99.999 6 6 1.149
230 446 0 19 99.999 3 2 3.215
231 446 0 20 99.999 3 3 0.964
232 446 0 21 99.999 6 5 2.882
233 446 0 22 99.999 1 1 1.18
234 446 0 23 99.999 7 7 1.123
235 446 0 24 99.999 2 2 2.701
236 446 0 25 99.999 1 1 0.749
237 446 0 26 99.999 2 2 2.077
238 446 0 27 99.999 1 1 0.782
239 446 0 28 99.999 3 3 1.39
240 446 0 29 99.999 1 1 1.294
241 446 0 30 99.999 5 4 3.885
242 446 0 31 99.999 4 3 2.621
243 446 0 32 99.999 2 1 1.006
244 446 0 33 99.999 5 5 3.197
245 446 0 34 99.999 3 3 2.621
246 446 0 35 99.999 3 3 0.931
247 446 0 36 99.999 5 5 2.156
248 446 0 37 99.999 1 1 0.767
249 446 0 38 99.999 6 6 1.812
250 446 0 39 99.999 4 4 5.246
251 446 0 40 99.999 6 6 1.031
252 446 0 41 99.999 1 1 0.702
253 446 0 42 99.999 3 3 4.27
254 446 0 43 99.999 3 3 1.055
255 446 0 44 99.999 2 2 2.236
256 446 0 45 99.999 4 4 4.765
257 446 0 46 99.999 7 7 1.328
258 446 0 47 99.999 6 6 0.99
259 446 0 48 99.999 7 7 0.751
260 446 0 49 99.999 5 5 6.723
261 446 0 50 99.999 2 2 3.837
262 446 0 51 99.999 6 6 4.515
263 446 0 52 99.999 7 7 0.799
264 446 0 53 99.999 2 2 5.199
265 446 0 54 99.999 2 2 0.718
266 446 0 55 99.999 6 5 3.614
267 446 0 56 99.999 4 4 3.921
268 446 0 57 99.999 5 5 1.357
269 446 0 58 99.999 6 6 0.894
270 446 0 59 99.999 5 5 1.037
271 446 0 60 99.999 7 7 0.894
272 446 0 61 99.999 2 2 8.017
273 446 0 62 99.999 7 7 1.293
274 446 0 63 99.999 1 1 1.149
275 446 0 64 99.999 5 5 3.182
276 446 0 65 99.999 1 1 1.214
277 446 0 66 99.999 1 1 0.701
278 446 0 67 99.999 2 2 7.137
279 446 0 68 99.999 7 7 1.101
280 446 0 69 99.999 7 7 0.641
281 446 1 0 99.999 1 1 4.683
282 446 1 1 99.999 5 5 4.718
283 446 1 2 99.999 4 3 4.705
284 446 1 3 99.999 6 6 1.744
285 446 1 4 99.999 7 7 0.446
286 446 1 5 99.999 3 3 2.91
287 446 1 6 99.999 1 1 0.88
288 446 1 7 99.999 5 5 3.983
289 446 1 8 99.999 2 2 2.107
290 446 1 9 99.999 4 4 4.159
291 446 1 10 99.999 2 2 2.414
292 446 1 11 99.999 2 2 0.67
293 446 1 12 99.999 4 4 1.871
294 446 1 13 99.999 7 7 1.426
295 446 1 14 99.999 4 4 3.518
296 446 1 15 99.999 2 2 1.981
297 446 1 16 99.999 2 2 0.686
298 446 1 17 99.999 3 3 1.075
299 446 1 18 99.999 6 5 2.703
300 446 1 19 99.999 5 5 0.691
301 446 1 20 99.999 3 3 2.67
302 446 1 21 99.999 4 4 1.858
303 446 1 22 99.999 4 4 1.133
304 446 1 23 99.999 7 7 1.115
305 446 1 24 99.999 4 4 8.237
306 446 1 25 99.999 6 6 1.774
307 446 1 26 99.999 3 3 1.583
308 446 1 27 99.999 6 6 4.174
309 446 1 28 99.999 3 3 2.354
310 446 1 29 99.999 1 1 0.975
311 446 1 30 99.999 7 7 1.262
312 446 1 31 99.999 2 2 1.826
313 446 1 32 99.999 5 5 3.341
314 446 1 33 99.999 2 2 1.747
315 446 1 34 99.999 1 1 0.702
316 446 1 35 99.999 2 2 3.246
317 446 1 36 99.999 5 5 3.07
318 446 1 37 99.999 2 2 1.523
319 446 1 38 99.999 2 2 0.51
320 446 1 39 99.999 1 1 0.813
321 446 1 40 99.999 3 3 1.262
322 446 1 41 99.999 6 6 3.15
323 446 1 42 99.999 6 6 0.685
324 446 1 43 99.999 2 2 1.454
325 446 1 44 99.999 2 2 0.75
326 446 1 45 99.999 1 1 1.486
327 446 1 46 99.999 7 7 4.095
328 446 1 47 99.999 1 1 1.149
329 446 1 48 99.999 1 1 0.718
330 446 1 49 99.999 5 5 3.245
331 446 1 50 99.999 5 5 0.59
332 446 1 51 99.999 4 4 0.832
333 446 1 52 99.999 7 7 3.309
334 446 1 53 99.999 7 7 2.365
335 446 1 54 99.999 3 3 2.195
336 446 1 55 99.999 6 6 3.869
337 446 1 56 99.999 3 3 2.11
338 446 1 57 99.999 5 5 2.157
339 446 1 58 99.999 7 7 1.134
340 446 1 59 99.999 3 3 2.11
341 446 1 60 99.999 3 3 0.687
342 446 1 61 99.999 6 6 1.55
343 446 1 62 99.999 7 7 0.829
344 446 1 63 99.999 4 4 8.078
345 446 1 64 99.999 2 2 1.485
346 446 1 65 99.999 5 5 1.454
347 446 1 66 99.999 4 4 9.662
348 446 1 67 99.999 5 5 0.717
349 446 1 68 99.999 4 4 0.622
350 446 1 69 99.999 3 3 2.175
351 446 2 0 99.999 4 4 4.699
352 446 2 1 99.999 2 2 2.682
353 446 2 2 99.999 4 4 6.029
354 446 2 3 99.999 3 3 0.655
355 446 2 4 99.999 2 2 0.686
356 446 2 5 99.999 2 1 0.639
357 446 2 6 99.999 5 5 3.63
358 446 2 7 99.999 5 5 0.702
359 446 2 8 99.999 7 7 1.33
360 446 2 9 99.999 3 3 3.501
361 446 2 10 99.999 1 1 0.894
362 446 2 11 99.999 7 7 1.617
363 446 2 12 99.999 7 7 7.613
364 446 2 13 99.999 6 6 1.346
365 446 2 14 99.999 5 5 1.027
366 446 2 15 99.999 3 3 1.469
367 446 2 16 99.999 6 6 1.504
368 446 2 17 99.999 6 6 0.461
369 446 2 18 99.999 1 1 1.186
370 446 2 19 99.999 5 5 4.749
371 446 2 20 99.999 7 7 1.341
372 446 2 21 99.999 4 3 2.411
373 446 2 22 99.999 4 4 0.669
374 446 2 23 99.999 5 5 1.41
375 446 2 24 99.999 2 2 1.165
376 446 2 25 99.999 7 7 1.075
377 446 2 26 99.999 1 1 1.085
378 446 2 27 99.999 3 3 1.202
379 446 2 28 99.999 6 6 1.105
380 446 2 29 99.999 4 4 1.405
381 446 2 30 99.999 4 4 0.83
382 446 2 31 99.999 6 6 1.661
383 446 2 32 99.999 5 5 19.091
384 446 2 33 99.999 6 6 0.813
385 446 2 34 99.999 4 4 1.746
386 446 2 35 99.999 4 4 0.525
387 446 2 36 99.999 5 5 0.952
388 446 2 37 99.999 7 7 1.25
389 446 2 38 99.999 7 7 0.652
390 446 2 39 99.999 4 5 5.619
391 446 2 40 99.999 5 5 2.292
392 446 2 41 99.999 6 6 0.687
393 446 2 42 99.999 2 2 1.262
394 446 2 43 99.999 5 4 2.227
395 446 2 44 99.999 1 1 1.123
396 446 2 45 99.999 6 6 1.517
397 446 2 46 99.999 1 1 0.989
398 446 2 47 99.999 2 3 1.856
399 446 2 48 99.999 3 3 1.55
400 446 2 49 99.999 3 3 0.624
401 446 2 50 99.999 6 6 2.142
402 446 2 51 99.999 6 6 0.541
403 446 2 52 99.999 1 1 1.1
404 446 2 53 99.999 2 2 2.7
405 446 2 54 99.999 7 7 1.391
406 446 2 55 99.999 3 3 10.047
407 446 2 56 99.999 7 7 1.315
408 446 2 57 99.999 1 1 1.502
409 446 2 58 99.999 3 3 9.441
410 446 2 59 99.999 3 3 0.542
411 446 2 60 99.999 5 5 1.853
412 446 2 61 99.999 7 7 0.846
413 446 2 62 99.999 6 6 0.541
414 446 2 63 99.999 1 2 1.198
415 446 2 64 99.999 1 1 0.781
416 446 2 65 99.999 7 7 1.055
417 446 2 66 99.999 7 7 1.437
418 446 2 67 99.999 1 1 1.149
419 446 2 68 99.999 7 7 0.798
420 446 2 69 99.999 1 1 0.461
