datID sessionID task diff block trial bigL smallL resp rt
1 2 0 0 0 0 1 1 1 0.95
2 2 0 0 0 1 1 0 1 0.552
3 2 0 0 0 2 0 0 0 0.571
4 2 0 0 0 3 1 1 1 0.491
5 2 0 0 0 4 1 1 1 0.589
6 2 0 0 0 5 1 0 1 0.66
7 2 0 0 0 6 0 1 0 0.672
8 2 0 0 0 7 1 1 1 0.46
9 2 0 0 0 8 1 0 0 0.43
10 2 0 0 0 9 0 0 0 0.683
11 2 0 0 0 10 1 0 1 0.439
12 2 0 0 0 11 0 1 0 0.531
13 2 0 0 0 12 1 1 1 0.604
14 2 0 0 0 13 1 1 1 0.432
15 2 0 0 0 14 1 1 1 0.469
16 2 0 0 0 15 1 0 1 0.736
17 2 0 0 0 16 0 1 0 0.434
18 2 0 0 0 17 1 0 1 0.519
19 2 0 0 0 18 0 0 0 0.752
20 2 0 0 0 19 0 0 0 0.45
21 2 0 0 0 20 1 0 1 0.51
22 2 0 0 0 21 1 1 1 0.655
23 2 0 0 0 22 0 0 0 0.757
24 2 0 0 0 23 0 1 0 0.637
25 2 0 0 0 24 1 1 1 0.49
26 2 0 0 0 25 0 0 0 0.532
27 2 0 0 0 26 0 1 0 0.685
28 2 0 0 0 27 1 1 1 0.409
29 2 0 0 0 28 0 0 0 0.486
30 2 0 0 0 29 0 0 0 0.497
31 2 0 0 0 30 0 0 0 0.443
32 2 0 0 0 31 0 0 0 0.431
33 2 0 0 0 32 1 0 1 0.772
34 2 0 0 0 33 1 0 1 0.772
35 2 0 0 0 34 1 0 1 0.46
36 2 0 0 0 35 0 0 0 0.83
37 2 0 0 0 36 1 1 0 0.812
38 2 0 0 0 37 0 1 0 0.595
39 2 0 0 0 38 1 0 1 0.585
40 2 0 0 0 39 0 0 0 0.409
41 2 0 0 0 40 0 1 0 0.526
42 2 0 0 0 41 1 0 1 0.751
43 2 0 0 0 42 0 1 0 0.512
44 2 0 0 0 43 0 0 0 0.601
45 2 0 0 0 44 0 0 0 0.36
46 2 0 0 0 45 0 1 0 0.487
47 2 0 0 0 46 0 1 0 0.386
48 2 0 0 0 47 0 0 0 0.84
49 2 0 0 0 48 1 1 1 0.357
50 2 0 0 0 49 0 1 0 0.476
51 2 0 0 1 50 0 0 0 1.403
52 2 0 0 1 51 1 1 1 0.42
53 2 0 0 1 52 1 0 1 0.569
54 2 0 0 1 53 1 1 1 0.544
55 2 0 0 1 54 1 0 1 0.425
56 2 0 0 1 55 1 1 1 0.445
57 2 0 0 1 56 1 1 1 0.394
58 2 0 0 1 57 0 1 0 0.402
59 2 0 0 1 58 0 1 0 0.36
60 2 0 0 1 59 1 0 1 0.359
61 2 0 0 1 60 0 0 0 0.518
62 2 0 0 1 61 0 1 0 0.591
63 2 0 0 1 62 1 0 1 0.462
64 2 0 0 1 63 0 1 0 0.513
65 2 0 0 1 64 1 0 1 1.058
66 2 0 0 1 65 0 0 0 0.481
67 2 0 0 1 66 1 1 1 0.684
68 2 0 0 1 67 1 1 1 0.304
69 2 0 0 1 68 0 0 0 0.385
70 2 0 0 1 69 1 0 1 0.542
71 2 0 0 1 70 0 1 0 0.511
72 2 0 0 1 71 1 1 1 0.624
73 2 0 0 1 72 0 0 0 0.446
74 2 0 0 1 73 1 0 1 0.578
75 2 0 0 1 74 0 1 0 0.617
76 2 0 0 1 75 0 0 0 0.567
77 2 0 0 1 76 1 1 1 0.341
78 2 0 0 1 77 0 1 0 0.452
79 2 0 0 1 78 1 0 1 0.408
80 2 0 0 1 79 0 0 0 0.445
81 2 0 0 1 80 1 0 1 0.401
82 2 0 0 1 81 0 0 0 0.453
83 2 0 0 1 82 0 1 0 0.593
84 2 0 0 1 83 1 0 1 0.392
85 2 0 0 1 84 1 0 1 0.494
86 2 0 0 1 85 1 1 1 0.472
87 2 0 0 1 86 0 1 0 0.476
88 2 0 0 1 87 1 0 1 0.518
89 2 0 0 1 88 0 1 0 0.44
90 2 0 0 1 89 1 1 1 0.483
91 2 0 0 1 90 0 1 0 0.447
92 2 0 0 1 91 0 1 0 0.579
93 2 0 0 1 92 0 1 0 0.626
94 2 0 0 1 93 1 0 1 0.328
95 2 0 0 1 94 1 1 1 0.512
96 2 0 0 1 95 0 0 0 0.482
97 2 0 0 1 96 0 0 0 0.597
98 2 0 0 1 97 0 1 0 0.819
99 2 0 0 1 98 1 1 1 0.483
100 2 0 0 1 99 1 1 1 0.325
101 2 1 0 0 0 1 0 0 0.496
102 2 1 0 0 1 0 0 0 0.474
103 2 1 0 0 2 1 1 1 0.213
104 2 1 0 0 3 1 1 1 0.497
105 2 1 0 0 4 1 0 0 0.283
106 2 1 0 0 5 0 1 1 0.325
107 2 1 0 0 6 1 1 1 0.396
108 2 1 0 0 7 0 1 1 0.267
109 2 1 0 0 8 1 1 1 0.269
110 2 1 0 0 9 0 1 1 0.296
111 2 1 0 0 10 0 1 1 0.241
112 2 1 0 0 11 0 1 1 0.308
113 2 1 0 0 12 0 0 0 0.325
114 2 1 0 0 13 1 0 0 0.205
115 2 1 0 0 14 0 0 0 0.362
116 2 1 0 0 15 1 0 0 0.352
117 2 1 0 0 16 1 0 0 0.28
118 2 1 0 0 17 1 0 0 0.299
119 2 1 0 0 18 0 0 0 0.236
120 2 1 0 0 19 1 1 1 0.32
121 2 1 0 0 20 0 0 0 0.433
122 2 1 0 0 21 1 1 1 0.422
123 2 1 0 0 22 1 1 0 0.371
124 2 1 0 0 23 0 0 0 0.419
125 2 1 0 0 24 1 1 1 0.328
126 2 1 0 0 25 0 1 1 0.374
127 2 1 0 0 26 1 0 0 0.333
128 2 1 0 0 27 1 0 0 0.398
129 2 1 0 0 28 0 1 1 0.38
130 2 1 0 0 29 1 0 0 0.402
131 2 1 0 0 30 0 0 0 0.432
132 2 1 0 0 31 1 0 0 0.397
133 2 1 0 0 32 1 0 0 0.514
134 2 1 0 0 33 0 1 1 0.363
135 2 1 0 0 34 1 0 0 0.299
136 2 1 0 0 35 0 1 1 0.371
137 2 1 0 0 36 0 0 0 0.353
138 2 1 0 0 37 1 1 1 0.246
139 2 1 0 0 38 1 1 1 0.346
140 2 1 0 0 39 1 0 0 0.329
141 2 1 0 0 40 0 0 0 0.353
142 2 1 0 0 41 0 1 1 0.369
143 2 1 0 0 42 0 0 0 0.248
144 2 1 0 0 43 0 1 1 0.283
145 2 1 0 0 44 0 1 0 0.197
146 2 1 0 0 45 1 1 1 0.738
147 2 1 0 0 46 0 0 0 0.299
148 2 1 0 0 47 1 1 0 0.341
149 2 1 0 0 48 1 1 1 0.411
150 2 1 0 0 49 1 1 1 0.257
151 2 1 0 1 50 0 1 1 0.679
152 2 1 0 1 51 1 0 0 0.306
153 2 1 0 1 52 0 1 1 0.324
154 2 1 0 1 53 0 1 1 0.525
155 2 1 0 1 54 1 0 0 0.43
156 2 1 0 1 55 1 0 0 0.347
157 2 1 0 1 56 1 0 0 0.371
158 2 1 0 1 57 0 1 1 0.33
159 2 1 0 1 58 1 0 0 0.345
160 2 1 0 1 59 0 0 0 0.657
161 2 1 0 1 60 1 1 1 0.326
162 2 1 0 1 61 1 0 0 0.366
163 2 1 0 1 62 0 0 0 0.348
164 2 1 0 1 63 0 0 0 0.356
165 2 1 0 1 64 0 0 0 0.283
166 2 1 0 1 65 0 0 0 0.325
167 2 1 0 1 66 0 1 1 0.373
168 2 1 0 1 67 1 1 1 0.403
169 2 1 0 1 68 0 0 0 0.289
170 2 1 0 1 69 1 1 1 0.219
171 2 1 0 1 70 0 1 1 0.616
172 2 1 0 1 71 1 0 0 0.365
173 2 1 0 1 72 1 1 1 0.676
174 2 1 0 1 73 0 0 0 0.784
175 2 1 0 1 74 0 0 0 0.384
176 2 1 0 1 75 1 0 0 0.247
177 2 1 0 1 76 1 0 0 0.61
178 2 1 0 1 77 1 1 1 0.408
179 2 1 0 1 78 0 1 1 0.373
180 2 1 0 1 79 0 1 1 0.716
181 2 1 0 1 80 1 1 1 0.27
182 2 1 0 1 81 1 1 1 0.399
183 2 1 0 1 82 1 0 0 0.421
184 2 1 0 1 83 0 0 0 0.314
185 2 1 0 1 84 0 0 0 0.226
186 2 1 0 1 85 1 1 1 0.269
187 2 1 0 1 86 1 0 0 0.353
188 2 1 0 1 87 0 0 0 0.387
189 2 1 0 1 88 0 0 0 0.433
190 2 1 0 1 89 0 1 1 0.341
191 2 1 0 1 90 0 0 0 0.389
192 2 1 0 1 91 1 0 0 0.354
193 2 1 0 1 92 1 1 1 0.282
194 2 1 0 1 93 0 1 1 0.404
195 2 1 0 1 94 0 0 0 0.281
196 2 1 0 1 95 0 1 1 0.359
197 2 1 0 1 96 0 1 1 0.272
198 2 1 0 1 97 1 1 1 0.328
199 2 1 0 1 98 0 1 1 0.433
200 2 1 0 1 99 1 1 1 0.238
201 2 1 2 0 0 1 1 1 1.398
202 2 1 2 0 1 0 0 0 0.335
203 2 1 2 0 2 0 0 0 0.589
204 2 1 2 0 3 1 1 1 0.396
205 2 1 2 0 4 0 0 0 0.377
206 2 1 2 0 5 0 1 1 0.184
207 2 1 2 0 6 0 1 1 0.347
208 2 1 2 0 7 1 1 1 0.275
209 2 1 2 0 8 0 1 1 0.309
210 2 1 2 0 9 0 1 1 0.253
211 2 1 2 0 10 0 0 0 0.313
212 2 1 2 0 11 0 1 1 0.401
213 2 1 2 0 12 1 0 0 0.382
214 2 1 2 0 13 1 1 1 0.276
215 2 1 2 0 14 1 1 1 0.398
216 2 1 2 0 15 1 1 1 0.316
217 2 1 2 0 16 0 1 1 0.307
218 2 1 2 0 17 0 1 1 0.341
219 2 1 2 0 18 0 1 1 0.357
220 2 1 2 0 19 1 1 1 0.348
221 2 1 2 0 20 0 1 1 0.427
222 2 1 2 0 21 0 0 0 0.447
223 2 1 2 0 22 0 0 0 0.491
224 2 1 2 0 23 0 0 0 0.254
225 2 1 2 0 24 0 1 1 0.358
226 2 1 2 0 25 1 0 0 0.653
227 2 1 2 0 26 0 1 1 0.33
228 2 1 2 0 27 0 0 0 0.45
229 2 1 2 0 28 1 1 1 0.357
230 2 1 2 0 29 0 0 0 0.445
231 2 1 2 0 30 0 0 0 0.481
232 2 1 2 0 31 0 0 0 0.397
233 2 1 2 0 32 0 0 0 0.296
234 2 1 2 0 33 1 0 0 0.441
235 2 1 2 0 34 1 1 1 0.373
236 2 1 2 0 35 0 0 0 0.364
237 2 1 2 0 36 1 1 1 0.331
238 2 1 2 0 37 1 1 1 0.651
239 2 1 2 0 38 1 1 1 0.416
240 2 1 2 0 39 0 0 0 0.301
241 2 1 2 0 40 1 0 0 0.231
242 2 1 2 0 41 1 0 0 0.378
243 2 1 2 0 42 1 0 0 0.274
244 2 1 2 0 43 0 0 0 0.508
245 2 1 2 0 44 1 0 0 0.382
246 2 1 2 0 45 1 0 0 0.22
247 2 1 2 0 46 1 1 1 0.48
248 2 1 2 0 47 1 0 0 0.483
249 2 1 2 0 48 1 0 0 0.366
250 2 1 2 0 49 0 0 1 0.403
251 2 1 2 1 50 1 0 0 1.08
252 2 1 2 1 51 1 0 0 0.293
253 2 1 2 1 52 1 0 0 0.279
254 2 1 2 1 53 0 1 1 0.329
255 2 1 2 1 54 1 1 1 0.369
256 2 1 2 1 55 0 0 0 0.624
257 2 1 2 1 56 1 0 0 0.356
258 2 1 2 1 57 0 0 0 0.467
259 2 1 2 1 58 1 0 0 0.384
260 2 1 2 1 59 0 1 1 0.35
261 2 1 2 1 60 1 1 1 0.35
262 2 1 2 1 61 0 0 0 0.491
263 2 1 2 1 62 1 1 1 0.459
264 2 1 2 1 63 1 0 0 0.272
265 2 1 2 1 64 0 1 1 0.321
266 2 1 2 1 65 0 0 0 0.482
267 2 1 2 1 66 1 0 0 0.478
268 2 1 2 1 67 1 0 0 0.344
269 2 1 2 1 68 0 1 1 0.408
270 2 1 2 1 69 1 0 0 0.453
271 2 1 2 1 70 1 0 0 0.529
272 2 1 2 1 71 0 1 1 0.322
273 2 1 2 1 72 1 1 1 0.259
274 2 1 2 1 73 0 1 1 0.285
275 2 1 2 1 74 0 0 0 0.35
276 2 1 2 1 75 1 1 1 0.565
277 2 1 2 1 76 0 1 1 0.282
278 2 1 2 1 77 1 1 1 0.356
279 2 1 2 1 78 0 0 0 0.275
280 2 1 2 1 79 0 1 1 0.341
281 2 1 2 1 80 1 1 1 0.308
282 2 1 2 1 81 0 1 1 0.373
283 2 1 2 1 82 0 0 0 0.308
284 2 1 2 1 83 1 1 1 0.364
285 2 1 2 1 84 0 1 1 0.355
286 2 1 2 1 85 1 0 0 0.37
287 2 1 2 1 86 0 1 1 0.393
288 2 1 2 1 87 0 0 0 0.215
289 2 1 2 1 88 1 0 0 0.523
290 2 1 2 1 89 0 1 1 0.364
291 2 1 2 1 90 1 1 1 0.419
292 2 1 2 1 91 0 1 1 0.337
293 2 1 2 1 92 1 1 1 0.505
294 2 1 2 1 93 0 1 0 0.217
295 2 1 2 1 94 1 0 0 0.421
296 2 1 2 1 95 1 0 0 0.282
297 2 1 2 1 96 1 1 1 0.308
298 2 1 2 1 97 1 0 0 0.429
299 2 1 2 1 98 1 1 1 0.649
300 2 1 2 1 99 0 0 0 0.405
301 2 0 2 0 0 1 1 1 1.215
302 2 0 2 0 1 0 1 0 1.063
303 2 0 2 0 2 0 1 1 1.204
304 2 0 2 0 3 1 1 1 0.941
305 2 0 2 0 4 0 1 0 0.927
306 2 0 2 0 5 0 0 0 1.721
307 2 0 2 0 6 1 0 0 2.999
308 2 0 2 0 7 0 1 0 1.008
309 2 0 2 0 8 1 0 1 0.672
310 2 0 2 0 9 0 0 0 0.891
311 2 0 2 0 10 1 1 1 0.589
312 2 0 2 0 11 1 0 1 0.876
313 2 0 2 0 12 0 0 0 0.712
314 2 0 2 0 13 1 1 1 0.787
315 2 0 2 0 14 0 1 0 0.738
316 2 0 2 0 15 1 0 1 1.74
317 2 0 2 0 16 0 0 0 0.793
318 2 0 2 0 17 1 1 1 0.545
319 2 0 2 0 18 1 0 1 0.521
320 2 0 2 0 19 1 0 1 0.594
321 2 0 2 0 20 1 0 1 0.704
322 2 0 2 0 21 0 1 0 0.339
323 2 0 2 0 22 1 1 1 0.539
324 2 0 2 0 23 0 1 0 0.515
325 2 0 2 0 24 0 0 0 0.541
326 2 0 2 0 25 0 0 0 0.526
327 2 0 2 0 26 0 1 0 1.391
328 2 0 2 0 27 1 1 1 0.777
329 2 0 2 0 28 1 0 1 1.353
330 2 0 2 0 29 1 1 1 0.556
331 2 0 2 0 30 1 0 1 0.436
332 2 0 2 0 31 1 0 1 0.8
333 2 0 2 0 32 1 0 1 0.744
334 2 0 2 0 33 0 1 0 0.609
335 2 0 2 0 34 1 0 1 0.471
336 2 0 2 0 35 0 0 0 0.443
337 2 0 2 0 36 0 0 0 0.831
338 2 0 2 0 37 0 0 0 0.533
339 2 0 2 0 38 1 0 1 0.734
340 2 0 2 0 39 0 0 0 0.672
341 2 0 2 0 40 0 1 0 0.932
342 2 0 2 0 41 1 0 1 0.638
343 2 0 2 0 42 1 0 1 0.859
344 2 0 2 0 43 0 0 0 0.504
345 2 0 2 0 44 0 1 0 0.866
346 2 0 2 0 45 1 1 1 0.423
347 2 0 2 0 46 1 0 1 0.876
348 2 0 2 0 47 0 0 0 0.76
349 2 0 2 0 48 1 0 1 0.761
350 2 0 2 0 49 0 1 0 0.586
351 2 0 2 1 50 0 0 0 2.068
352 2 0 2 1 51 1 1 1 0.422
353 2 0 2 1 52 1 0 1 0.835
354 2 0 2 1 53 0 0 0 0.473
355 2 0 2 1 54 0 1 0 0.748
356 2 0 2 1 55 0 1 0 0.557
357 2 0 2 1 56 0 1 0 0.509
358 2 0 2 1 57 0 0 0 0.567
359 2 0 2 1 58 0 0 0 0.711
360 2 0 2 1 59 0 1 0 0.447
361 2 0 2 1 60 1 0 1 0.403
362 2 0 2 1 61 0 0 0 0.593
363 2 0 2 1 62 1 0 1 0.464
364 2 0 2 1 63 0 1 0 0.643
365 2 0 2 1 64 1 1 1 0.624
366 2 0 2 1 65 1 0 0 0.461
367 2 0 2 1 66 0 1 0 0.689
368 2 0 2 1 67 1 1 1 0.58
369 2 0 2 1 68 0 0 0 0.635
370 2 0 2 1 69 1 1 1 0.729
371 2 0 2 1 70 0 1 1 0.659
372 2 0 2 1 71 0 0 1 0.639
373 2 0 2 1 72 1 0 1 0.668
374 2 0 2 1 73 1 1 1 1.024
375 2 0 2 1 74 1 1 1 0.679
376 2 0 2 1 75 1 1 1 0.507
377 2 0 2 1 76 1 1 1 0.396
378 2 0 2 1 77 0 0 0 0.49
379 2 0 2 1 78 1 0 1 0.829
380 2 0 2 1 79 0 1 0 0.779
381 2 0 2 1 80 1 1 1 0.683
382 2 0 2 1 81 1 0 1 1.607
383 2 0 2 1 82 0 1 0 1.017
384 2 0 2 1 83 0 0 0 0.785
385 2 0 2 1 84 0 1 0 0.73
386 2 0 2 1 85 1 0 1 0.532
387 2 0 2 1 86 1 1 1 1.364
388 2 0 2 1 87 0 1 0 0.863
389 2 0 2 1 88 1 1 1 0.62
390 2 0 2 1 89 1 1 1 0.506
391 2 0 2 1 90 1 1 1 1.588
392 2 0 2 1 91 0 1 0 0.615
393 2 0 2 1 92 1 1 1 0.797
394 2 0 2 1 93 0 0 0 0.5
395 2 0 2 1 94 0 1 1 0.519
396 2 0 2 1 95 0 0 0 0.544
397 2 0 2 1 96 0 0 0 0.48
398 2 0 2 1 97 1 1 1 0.691
399 2 0 2 1 98 0 0 0 1.31
400 2 0 2 1 99 1 1 1 0.721
401 2 1 1 0 0 0 1 1 1.384
402 2 1 1 0 1 1 0 0 0.443
403 2 1 1 0 2 0 1 1 0.223
404 2 1 1 0 3 0 1 1 0.312
405 2 1 1 0 4 1 1 1 0.377
406 2 1 1 0 5 1 0 0 0.303
407 2 1 1 0 6 0 0 0 0.617
408 2 1 1 0 7 1 1 1 0.351
409 2 1 1 0 8 0 0 0 0.31
410 2 1 1 0 9 1 1 1 0.391
411 2 1 1 0 10 1 0 0 0.277
412 2 1 1 0 11 1 1 1 0.294
413 2 1 1 0 12 0 0 0 0.287
414 2 1 1 0 13 1 0 0 0.386
415 2 1 1 0 14 1 1 1 0.368
416 2 1 1 0 15 1 0 0 0.376
417 2 1 1 0 16 1 1 1 0.382
418 2 1 1 0 17 0 1 1 0.555
419 2 1 1 0 18 1 1 1 0.611
420 2 1 1 0 19 1 0 0 0.385
421 2 1 1 0 20 1 0 0 0.296
422 2 1 1 0 21 0 0 0 0.265
423 2 1 1 0 22 0 1 1 0.227
424 2 1 1 0 23 0 0 0 0.406
425 2 1 1 0 24 1 1 1 0.308
426 2 1 1 0 25 0 0 0 0.309
427 2 1 1 0 26 0 0 0 0.278
428 2 1 1 0 27 0 0 0 0.216
429 2 1 1 0 28 1 1 1 0.412
430 2 1 1 0 29 0 0 0 0.281
431 2 1 1 0 30 0 0 0 0.307
432 2 1 1 0 31 0 0 0 0.276
433 2 1 1 0 32 0 1 1 0.318
434 2 1 1 0 33 1 1 1 0.407
435 2 1 1 0 34 0 1 1 0.204
436 2 1 1 0 35 1 1 1 0.353
437 2 1 1 0 36 0 0 0 0.233
438 2 1 1 0 37 0 0 0 0.235
439 2 1 1 0 38 0 1 1 0.357
440 2 1 1 0 39 0 1 1 0.196
441 2 1 1 0 40 0 1 1 0.257
442 2 1 1 0 41 0 1 1 0.227
443 2 1 1 0 42 1 1 1 0.183
444 2 1 1 0 43 1 0 0 0.309
445 2 1 1 0 44 0 0 0 0.269
446 2 1 1 0 45 1 1 1 0.328
447 2 1 1 0 46 0 0 0 0.328
448 2 1 1 0 47 0 1 1 0.216
449 2 1 1 0 48 0 1 1 0.221
450 2 1 1 0 49 1 1 1 0.328
451 2 1 1 1 50 0 0 0 0.781
452 2 1 1 1 51 0 1 1 0.254
453 2 1 1 1 52 0 1 1 0.297
454 2 1 1 1 53 0 1 1 0.308
455 2 1 1 1 54 1 0 0 0.365
456 2 1 1 1 55 0 1 1 0.298
457 2 1 1 1 56 0 1 1 0.284
458 2 1 1 1 57 1 1 1 0.309
459 2 1 1 1 58 1 0 0 0.303
460 2 1 1 1 59 1 1 1 0.231
461 2 1 1 1 60 0 0 0 0.25
462 2 1 1 1 61 1 0 0 0.366
463 2 1 1 1 62 1 0 0 0.317
464 2 1 1 1 63 1 0 0 0.231
465 2 1 1 1 64 1 0 0 0.273
466 2 1 1 1 65 0 0 0 0.236
467 2 1 1 1 66 0 1 1 0.272
468 2 1 1 1 67 0 0 0 0.266
469 2 1 1 1 68 0 1 1 0.357
470 2 1 1 1 69 1 0 0 0.163
471 2 1 1 1 70 1 0 1 0.106
472 2 1 1 1 71 1 0 0 0.298
473 2 1 1 1 72 0 1 1 0.227
474 2 1 1 1 73 1 0 0 0.559
475 2 1 1 1 74 0 0 0 0.198
476 2 1 1 1 75 1 1 1 0.435
477 2 1 1 1 76 1 1 1 0.191
478 2 1 1 1 77 0 0 0 0.267
479 2 1 1 1 78 1 0 0 0.286
480 2 1 1 1 79 0 0 0 0.295
481 2 1 1 1 80 0 1 1 0.433
482 2 1 1 1 81 1 0 0 0.326
483 2 1 1 1 82 0 0 1 0.366
484 2 1 1 1 83 1 1 1 0.389
485 2 1 1 1 84 1 0 0 0.306
486 2 1 1 1 85 1 0 0 0.274
487 2 1 1 1 86 1 1 1 0.261
488 2 1 1 1 87 0 1 1 0.231
489 2 1 1 1 88 1 0 0 0.131
490 2 1 1 1 89 1 1 1 0.266
491 2 1 1 1 90 0 1 1 0.445
492 2 1 1 1 91 0 0 0 0.281
493 2 1 1 1 92 1 1 1 0.251
494 2 1 1 1 93 1 0 0 0.318
495 2 1 1 1 94 0 1 1 0.271
496 2 1 1 1 95 1 1 1 0.369
497 2 1 1 1 96 1 1 1 0.24
498 2 1 1 1 97 0 0 0 0.251
499 2 1 1 1 98 1 0 0 0.311
500 2 1 1 1 99 1 1 1 0.343
501 2 0 1 0 0 1 0 1 0.661
502 2 0 1 0 1 0 1 0 0.498
503 2 0 1 0 2 1 0 0 0.372
504 2 0 1 0 3 0 0 0 0.443
505 2 0 1 0 4 0 0 0 0.374
506 2 0 1 0 5 1 1 1 0.285
507 2 0 1 0 6 1 0 1 0.551
508 2 0 1 0 7 0 1 0 0.271
509 2 0 1 0 8 0 1 0 0.522
510 2 0 1 0 9 1 0 1 0.283
511 2 0 1 0 10 0 0 0 0.365
512 2 0 1 0 11 0 0 0 0.307
513 2 0 1 0 12 1 1 1 0.26
514 2 0 1 0 13 1 0 0 0.246
515 2 0 1 0 14 1 1 1 0.543
516 2 0 1 0 15 1 0 1 0.463
517 2 0 1 0 16 1 1 1 0.347
518 2 0 1 0 17 1 1 1 0.354
519 2 0 1 0 18 1 1 1 0.354
520 2 0 1 0 19 0 0 0 0.361
521 2 0 1 0 20 1 1 1 0.256
522 2 0 1 0 21 0 0 0 0.387
523 2 0 1 0 22 0 1 0 0.697
524 2 0 1 0 23 1 0 1 0.572
525 2 0 1 0 24 1 1 1 0.308
526 2 0 1 0 25 1 1 1 0.244
527 2 0 1 0 26 0 1 1 0.263
528 2 0 1 0 27 1 0 1 0.481
529 2 0 1 0 28 0 1 0 0.533
530 2 0 1 0 29 0 1 1 0.254
531 2 0 1 0 30 1 0 1 0.503
532 2 0 1 0 31 0 1 0 0.507
533 2 0 1 0 32 1 0 1 0.484
534 2 0 1 0 33 0 1 0 0.431
535 2 0 1 0 34 0 0 0 0.388
536 2 0 1 0 35 1 1 1 0.378
537 2 0 1 0 36 0 1 0 0.52
538 2 0 1 0 37 1 0 1 0.457
539 2 0 1 0 38 1 1 1 0.366
540 2 0 1 0 39 1 0 1 0.589
541 2 0 1 0 40 0 0 0 0.388
542 2 0 1 0 41 0 1 0 0.53
543 2 0 1 0 42 1 0 0 0.435
544 2 0 1 0 43 0 1 0 0.678
545 2 0 1 0 44 0 0 0 0.386
546 2 0 1 0 45 0 1 1 0.304
547 2 0 1 0 46 0 1 0 0.529
548 2 0 1 0 47 0 0 0 0.418
549 2 0 1 0 48 1 0 1 0.511
550 2 0 1 0 49 1 0 1 0.385
551 2 0 1 1 50 0 0 0 0.725
552 2 0 1 1 51 1 1 1 0.303
553 2 0 1 1 52 1 1 1 0.416
554 2 0 1 1 53 0 1 0 0.43
555 2 0 1 1 54 0 1 0 0.506
556 2 0 1 1 55 0 0 0 0.388
557 2 0 1 1 56 0 0 0 0.369
558 2 0 1 1 57 0 0 0 0.297
559 2 0 1 1 58 1 0 1 0.402
560 2 0 1 1 59 1 1 1 0.312
561 2 0 1 1 60 0 0 0 0.345
562 2 0 1 1 61 1 0 1 0.552
563 2 0 1 1 62 1 1 1 0.351
564 2 0 1 1 63 0 1 0 0.392
565 2 0 1 1 64 0 1 0 0.558
566 2 0 1 1 65 1 0 1 0.413
567 2 0 1 1 66 0 1 0 0.554
568 2 0 1 1 67 1 1 1 0.469
569 2 0 1 1 68 0 0 0 0.48
570 2 0 1 1 69 0 1 0 0.506
571 2 0 1 1 70 1 1 1 0.492
572 2 0 1 1 71 0 0 0 0.374
573 2 0 1 1 72 1 0 1 0.445
574 2 0 1 1 73 0 0 0 0.375
575 2 0 1 1 74 1 1 1 0.286
576 2 0 1 1 75 0 0 0 0.551
577 2 0 1 1 76 0 1 0 0.552
578 2 0 1 1 77 0 0 0 0.448
579 2 0 1 1 78 1 0 1 0.436
580 2 0 1 1 79 1 0 1 0.345
581 2 0 1 1 80 1 1 1 0.528
582 2 0 1 1 81 1 1 1 0.417
583 2 0 1 1 82 1 0 1 0.382
584 2 0 1 1 83 0 1 0 0.267
585 2 0 1 1 84 1 0 1 0.439
586 2 0 1 1 85 1 1 1 0.322
587 2 0 1 1 86 1 1 1 0.331
588 2 0 1 1 87 0 1 0 0.451
589 2 0 1 1 88 1 1 1 0.495
590 2 0 1 1 89 0 0 0 0.425
591 2 0 1 1 90 0 0 0 0.414
592 2 0 1 1 91 0 0 0 0.323
593 2 0 1 1 92 1 0 1 0.459
594 2 0 1 1 93 0 1 0 0.471
595 2 0 1 1 94 0 0 0 0.401
596 2 0 1 1 95 1 1 1 0.359
597 2 0 1 1 96 0 0 0 0.382
598 2 0 1 1 97 1 1 1 0.381
599 2 0 1 1 98 1 0 1 0.931
600 2 0 1 1 99 0 1 0 0.429
601 5 1 0 0 0 0 1 1 1.123
602 5 1 0 0 1 0 1 1 1.078
603 5 1 0 0 2 1 1 1 1.422
604 5 1 0 0 3 1 1 1 0.903
605 5 1 0 0 4 0 1 1 1.643
606 5 1 0 0 5 0 0 0 0.891
607 5 1 0 0 6 0 1 1 1.607
608 5 1 0 0 7 1 0 1 1.209
609 5 1 0 0 8 0 0 0 1.065
610 5 1 0 0 9 1 0 0 1.463
611 5 1 0 0 10 0 0 0 1.175
612 5 1 0 0 11 0 1 1 0.785
613 5 1 0 0 12 0 1 1 0.769
614 5 1 0 0 13 0 0 0 0.746
615 5 1 0 0 14 0 1 1 0.763
616 5 1 0 0 15 0 0 0 0.508
617 5 1 0 0 16 1 0 1 0.958
618 5 1 0 0 17 1 1 1 1.663
619 5 1 0 0 18 0 1 1 0.952
620 5 1 0 0 19 0 0 0 0.498
621 5 1 0 0 20 0 1 1 0.42
622 5 1 0 0 21 1 0 0 0.509
623 5 1 0 0 22 0 1 1 0.575
624 5 1 0 0 23 1 1 1 0.646
625 5 1 0 0 24 0 0 0 0.563
626 5 1 0 0 25 1 0 0 0.907
627 5 1 0 0 26 1 1 1 0.422
628 5 1 0 0 27 0 1 1 1.035
629 5 1 0 0 28 1 1 1 0.601
630 5 1 0 0 29 1 1 1 0.423
631 5 1 0 0 30 0 1 1 0.46
632 5 1 0 0 31 1 0 0 0.472
633 5 1 0 0 32 1 1 1 0.762
634 5 1 0 0 33 0 0 0 0.499
635 5 1 0 0 34 1 1 1 0.461
636 5 1 0 0 35 0 0 0 0.488
637 5 1 0 0 36 1 0 0 0.458
638 5 1 0 0 37 1 0 0 0.342
639 5 1 0 0 38 1 1 1 0.382
640 5 1 0 0 39 0 1 1 0.516
641 5 1 0 0 40 1 0 0 0.397
642 5 1 0 0 41 1 1 1 0.531
643 5 1 0 0 42 1 1 1 0.548
644 5 1 0 0 43 0 1 1 0.364
645 5 1 0 0 44 1 1 1 0.419
646 5 1 0 0 45 0 1 1 0.648
647 5 1 0 0 46 1 0 0 0.397
648 5 1 0 0 47 1 1 1 0.643
649 5 1 0 0 48 0 0 0 0.383
650 5 1 0 0 49 0 1 1 0.341
651 5 1 0 1 50 0 0 0 1.467
652 5 1 0 1 51 0 0 0 0.458
653 5 1 0 1 52 0 0 0 0.382
654 5 1 0 1 53 1 1 1 0.556
655 5 1 0 1 54 1 0 0 0.756
656 5 1 0 1 55 0 0 0 0.597
657 5 1 0 1 56 0 0 0 0.403
658 5 1 0 1 57 1 1 1 0.441
659 5 1 0 1 58 1 0 0 0.957
660 5 1 0 1 59 0 0 0 0.359
661 5 1 0 1 60 0 1 1 0.47
662 5 1 0 1 61 1 0 0 0.497
663 5 1 0 1 62 0 0 0 0.38
664 5 1 0 1 63 1 0 1 0.402
665 5 1 0 1 64 0 1 1 0.663
666 5 1 0 1 65 1 1 1 0.731
667 5 1 0 1 66 0 1 1 0.341
668 5 1 0 1 67 1 0 0 0.389
669 5 1 0 1 68 1 0 0 0.443
670 5 1 0 1 69 0 1 1 0.503
671 5 1 0 1 70 0 0 0 1.289
672 5 1 0 1 71 1 1 1 0.463
673 5 1 0 1 72 1 0 0 0.49
674 5 1 0 1 73 0 1 1 0.412
675 5 1 0 1 74 1 1 1 0.505
676 5 1 0 1 75 0 1 1 0.388
677 5 1 0 1 76 0 1 1 0.33
678 5 1 0 1 77 0 0 0 0.354
679 5 1 0 1 78 0 0 0 0.417
680 5 1 0 1 79 0 0 0 0.367
681 5 1 0 1 80 1 0 0 0.414
682 5 1 0 1 81 1 0 0 0.339
683 5 1 0 1 82 1 0 0 0.347
684 5 1 0 1 83 1 1 1 0.37
685 5 1 0 1 84 0 0 0 0.401
686 5 1 0 1 85 1 1 1 0.431
687 5 1 0 1 86 0 0 0 0.307
688 5 1 0 1 87 1 1 1 0.524
689 5 1 0 1 88 0 1 0 0.397
690 5 1 0 1 89 1 1 1 0.763
691 5 1 0 1 90 1 0 0 0.524
692 5 1 0 1 91 1 0 0 0.509
693 5 1 0 1 92 0 0 0 0.446
694 5 1 0 1 93 1 0 0 0.482
695 5 1 0 1 94 1 1 1 0.493
696 5 1 0 1 95 1 0 0 0.463
697 5 1 0 1 96 1 1 1 0.451
698 5 1 0 1 97 0 1 1 0.519
699 5 1 0 1 98 0 0 0 0.732
700 5 1 0 1 99 1 0 0 0.598
701 5 0 0 0 0 1 1 1 0.835
702 5 0 0 0 1 0 0 0 0.657
703 5 0 0 0 2 1 1 1 0.597
704 5 0 0 0 3 0 1 0 0.404
705 5 0 0 0 4 0 0 0 0.505
706 5 0 0 0 5 1 1 1 0.539
707 5 0 0 0 6 1 1 1 0.507
708 5 0 0 0 7 1 1 1 0.485
709 5 0 0 0 8 0 1 0 0.423
710 5 0 0 0 9 0 0 0 0.411
711 5 0 0 0 10 1 1 1 0.401
712 5 0 0 0 11 0 1 0 0.567
713 5 0 0 0 12 1 1 1 0.438
714 5 0 0 0 13 0 0 0 0.395
715 5 0 0 0 14 0 0 0 0.481
716 5 0 0 0 15 1 1 1 0.412
717 5 0 0 0 16 1 1 1 0.497
718 5 0 0 0 17 1 0 0 0.491
719 5 0 0 0 18 1 0 1 0.781
720 5 0 0 0 19 1 0 1 0.573
721 5 0 0 0 20 1 0 1 0.509
722 5 0 0 0 21 1 0 1 0.406
723 5 0 0 0 22 1 0 1 0.596
724 5 0 0 0 23 1 0 1 0.371
725 5 0 0 0 24 1 1 1 0.33
726 5 0 0 0 25 0 1 0 0.53
727 5 0 0 0 26 0 1 0 0.451
728 5 0 0 0 27 0 1 0 0.487
729 5 0 0 0 28 1 0 1 0.498
730 5 0 0 0 29 0 0 0 1.044
731 5 0 0 0 30 1 0 1 0.49
732 5 0 0 0 31 0 1 0 0.668
733 5 0 0 0 32 0 1 0 0.993
734 5 0 0 0 33 0 1 0 0.457
735 5 0 0 0 34 1 0 1 0.519
736 5 0 0 0 35 0 0 0 0.681
737 5 0 0 0 36 1 1 1 0.628
738 5 0 0 0 37 1 1 1 0.61
739 5 0 0 0 38 0 1 0 0.464
740 5 0 0 0 39 1 0 1 0.443
741 5 0 0 0 40 0 0 0 0.567
742 5 0 0 0 41 1 0 1 0.447
743 5 0 0 0 42 0 1 0 0.499
744 5 0 0 0 43 0 0 0 0.453
745 5 0 0 0 44 1 1 1 0.393
746 5 0 0 0 45 0 1 0 0.695
747 5 0 0 0 46 1 1 1 0.346
748 5 0 0 0 47 0 1 0 0.53
749 5 0 0 0 48 0 0 0 0.459
750 5 0 0 0 49 0 1 0 0.579
751 5 0 0 1 50 0 1 0 1.219
752 5 0 0 1 51 1 0 1 0.555
753 5 0 0 1 52 0 0 0 0.443
754 5 0 0 1 53 0 0 0 0.351
755 5 0 0 1 54 0 1 0 0.455
756 5 0 0 1 55 1 0 1 0.522
757 5 0 0 1 56 0 1 0 0.972
758 5 0 0 1 57 0 1 0 0.485
759 5 0 0 1 58 0 0 0 0.456
760 5 0 0 1 59 0 0 0 0.507
761 5 0 0 1 60 1 1 1 0.413
762 5 0 0 1 61 1 0 1 0.635
763 5 0 0 1 62 1 0 1 0.52
764 5 0 0 1 63 1 0 1 0.586
765 5 0 0 1 64 0 0 0 0.385
766 5 0 0 1 65 1 1 1 0.543
767 5 0 0 1 66 0 0 0 0.48
768 5 0 0 1 67 1 1 1 0.355
769 5 0 0 1 68 1 0 1 0.562
770 5 0 0 1 69 1 0 1 0.394
771 5 0 0 1 70 1 1 1 0.456
772 5 0 0 1 71 0 0 0 0.561
773 5 0 0 1 72 0 0 0 0.617
774 5 0 0 1 73 0 1 0 0.583
775 5 0 0 1 74 0 0 0 0.455
776 5 0 0 1 75 1 1 1 0.427
777 5 0 0 1 76 0 1 0 0.591
778 5 0 0 1 77 1 1 1 0.43
779 5 0 0 1 78 1 0 1 0.563
780 5 0 0 1 79 1 0 1 0.554
781 5 0 0 1 80 1 1 1 0.307
782 5 0 0 1 81 0 1 0 0.476
783 5 0 0 1 82 1 1 1 0.503
784 5 0 0 1 83 0 1 0 0.545
785 5 0 0 1 84 1 0 1 0.409
786 5 0 0 1 85 0 0 0 0.47
787 5 0 0 1 86 1 0 1 0.65
788 5 0 0 1 87 0 0 0 0.607
789 5 0 0 1 88 1 0 1 0.469
790 5 0 0 1 89 0 0 0 0.376
791 5 0 0 1 90 0 0 0 0.543
792 5 0 0 1 91 1 0 1 0.415
793 5 0 0 1 92 1 1 1 0.484
794 5 0 0 1 93 0 0 0 0.383
795 5 0 0 1 94 0 1 0 0.486
796 5 0 0 1 95 0 1 0 0.584
797 5 0 0 1 96 0 1 0 0.664
798 5 0 0 1 97 1 1 1 0.404
799 5 0 0 1 98 0 0 0 0.578
800 5 0 0 1 99 1 1 1 0.569
801 5 0 2 0 0 0 1 1 6.734
802 5 0 2 0 1 1 1 0 5.568
803 5 0 2 0 2 1 1 1 1.276
804 5 0 2 0 3 1 0 1 1.657
805 5 0 2 0 4 0 0 0 1.065
806 5 0 2 0 5 0 1 0 2.191
807 5 0 2 0 6 0 1 0 3.365
808 5 0 2 0 7 0 1 0 1.925
809 5 0 2 0 8 0 1 0 0.764
810 5 0 2 0 9 1 0 1 0.981
811 5 0 2 0 10 1 1 1 0.942
812 5 0 2 0 11 1 0 1 0.752
813 5 0 2 0 12 1 1 1 0.785
814 5 0 2 0 13 1 0 1 1.745
815 5 0 2 0 14 0 0 0 0.967
816 5 0 2 0 15 0 0 0 0.977
817 5 0 2 0 16 1 0 1 1.154
818 5 0 2 0 17 0 1 0 1.084
819 5 0 2 0 18 0 0 0 0.929
820 5 0 2 0 19 0 0 0 0.876
821 5 0 2 0 20 1 1 1 0.793
822 5 0 2 0 21 0 1 0 2.112
823 5 0 2 0 22 1 0 1 0.849
824 5 0 2 0 23 1 1 1 0.931
825 5 0 2 0 24 1 1 1 0.71
826 5 0 2 0 25 1 0 1 0.624
827 5 0 2 0 26 0 1 0 0.654
828 5 0 2 0 27 1 1 1 1.082
829 5 0 2 0 28 1 0 1 0.744
830 5 0 2 0 29 1 1 1 1.073
831 5 0 2 0 30 0 1 0 0.735
832 5 0 2 0 31 1 1 1 0.855
833 5 0 2 0 32 1 1 1 0.816
834 5 0 2 0 33 0 1 0 0.639
835 5 0 2 0 34 1 1 1 0.684
836 5 0 2 0 35 1 0 1 0.688
837 5 0 2 0 36 0 1 0 0.763
838 5 0 2 0 37 1 1 1 0.764
839 5 0 2 0 38 1 0 1 2.477
840 5 0 2 0 39 0 0 0 0.607
841 5 0 2 0 40 0 1 0 1.245
842 5 0 2 0 41 0 0 0 0.749
843 5 0 2 0 42 0 0 0 0.87
844 5 0 2 0 43 1 0 1 0.595
845 5 0 2 0 44 0 0 0 1.473
846 5 0 2 0 45 1 0 1 0.769
847 5 0 2 0 46 0 0 0 0.993
848 5 0 2 0 47 0 1 0 0.754
849 5 0 2 0 48 0 1 0 0.803
850 5 0 2 0 49 0 1 0 0.627
851 5 0 2 1 50 0 0 0 0.917
852 5 0 2 1 51 0 0 0 0.488
853 5 0 2 1 52 1 1 1 0.643
854 5 0 2 1 53 1 1 1 0.84
855 5 0 2 1 54 0 1 0 0.63
856 5 0 2 1 55 1 1 1 0.651
857 5 0 2 1 56 1 1 1 0.664
858 5 0 2 1 57 0 1 0 0.564
859 5 0 2 1 58 1 1 1 0.596
860 5 0 2 1 59 1 0 1 0.563
861 5 0 2 1 60 1 1 1 0.459
862 5 0 2 1 61 1 0 1 0.574
863 5 0 2 1 62 1 1 1 0.501
864 5 0 2 1 63 0 0 0 0.64
865 5 0 2 1 64 0 1 0 0.715
866 5 0 2 1 65 1 1 1 0.542
867 5 0 2 1 66 0 0 0 0.462
868 5 0 2 1 67 0 0 0 0.65
869 5 0 2 1 68 1 1 1 0.543
870 5 0 2 1 69 0 1 1 0.503
871 5 0 2 1 70 1 0 0 0.993
872 5 0 2 1 71 0 0 0 0.897
873 5 0 2 1 72 1 0 1 0.661
874 5 0 2 1 73 1 0 1 0.689
875 5 0 2 1 74 0 0 0 0.875
876 5 0 2 1 75 1 1 1 0.704
877 5 0 2 1 76 0 0 0 0.571
878 5 0 2 1 77 1 0 1 0.715
879 5 0 2 1 78 0 0 0 0.702
880 5 0 2 1 79 0 1 0 0.769
881 5 0 2 1 80 1 0 1 2.857
882 5 0 2 1 81 0 0 0 2.223
883 5 0 2 1 82 0 0 0 1.348
884 5 0 2 1 83 1 0 1 0.76
885 5 0 2 1 84 1 0 1 2.784
886 5 0 2 1 85 1 1 1 1.777
887 5 0 2 1 86 0 1 1 1.149
888 5 0 2 1 87 0 0 0 4.031
889 5 0 2 1 88 0 0 0 1.131
890 5 0 2 1 89 1 0 0 0.95
891 5 0 2 1 90 0 1 0 6.463
892 5 0 2 1 91 1 0 1 1.012
893 5 0 2 1 92 0 1 0 1.147
894 5 0 2 1 93 1 0 1 0.67
895 5 0 2 1 94 0 0 0 0.546
896 5 0 2 1 95 0 1 0 0.739
897 5 0 2 1 96 1 0 1 0.765
898 5 0 2 1 97 0 0 0 0.613
899 5 0 2 1 98 1 1 1 0.587
900 5 0 2 1 99 0 1 0 0.683
901 5 1 2 0 0 1 1 1 2.918
902 5 1 2 0 1 1 1 1 0.834
903 5 1 2 0 2 0 1 1 3.192
904 5 1 2 0 3 0 0 0 1.018
905 5 1 2 0 4 1 1 1 0.698
906 5 1 2 0 5 0 0 0 0.581
907 5 1 2 0 6 1 1 1 0.46
908 5 1 2 0 7 1 0 0 0.44
909 5 1 2 0 8 0 1 0 0.828
910 5 1 2 0 9 0 1 1 1.146
911 5 1 2 0 10 1 0 0 0.477
912 5 1 2 0 11 0 1 1 0.791
913 5 1 2 0 12 1 1 1 0.47
914 5 1 2 0 13 0 1 1 0.706
915 5 1 2 0 14 1 1 1 0.46
916 5 1 2 0 15 0 1 1 0.424
917 5 1 2 0 16 0 1 1 0.604
918 5 1 2 0 17 0 1 1 0.538
919 5 1 2 0 18 0 0 0 0.467
920 5 1 2 0 19 1 0 0 0.799
921 5 1 2 0 20 0 0 0 0.582
922 5 1 2 0 21 1 1 1 0.422
923 5 1 2 0 22 1 0 0 0.363
924 5 1 2 0 23 0 0 0 0.658
925 5 1 2 0 24 0 0 0 0.422
926 5 1 2 0 25 0 0 0 0.443
927 5 1 2 0 26 1 1 1 0.575
928 5 1 2 0 27 1 1 1 0.774
929 5 1 2 0 28 1 0 0 0.668
930 5 1 2 0 29 1 1 1 0.816
931 5 1 2 0 30 0 0 0 0.479
932 5 1 2 0 31 0 0 0 0.578
933 5 1 2 0 32 1 0 0 0.825
934 5 1 2 0 33 1 0 0 0.439
935 5 1 2 0 34 0 0 0 0.571
936 5 1 2 0 35 0 0 0 0.443
937 5 1 2 0 36 1 0 0 0.495
938 5 1 2 0 37 1 0 0 0.385
939 5 1 2 0 38 1 0 0 0.287
940 5 1 2 0 39 1 1 1 0.617
941 5 1 2 0 40 1 1 1 0.503
942 5 1 2 0 41 0 1 1 0.466
943 5 1 2 0 42 1 1 1 0.405
944 5 1 2 0 43 1 1 1 0.402
945 5 1 2 0 44 1 1 1 0.336
946 5 1 2 0 45 1 0 0 0.416
947 5 1 2 0 46 0 1 1 0.574
948 5 1 2 0 47 0 1 1 0.717
949 5 1 2 0 48 0 1 1 1
950 5 1 2 0 49 1 1 1 0.376
951 5 1 2 1 50 0 0 0 1.228
952 5 1 2 1 51 0 1 1 0.54
953 5 1 2 1 52 1 1 1 0.588
954 5 1 2 1 53 0 0 0 0.483
955 5 1 2 1 54 0 1 1 0.67
956 5 1 2 1 55 0 0 0 0.506
957 5 1 2 1 56 0 1 1 0.739
958 5 1 2 1 57 1 0 0 0.413
959 5 1 2 1 58 0 1 1 0.385
960 5 1 2 1 59 1 1 1 0.648
961 5 1 2 1 60 1 0 0 0.413
962 5 1 2 1 61 1 0 0 0.522
963 5 1 2 1 62 0 0 0 0.355
964 5 1 2 1 63 0 1 1 0.411
965 5 1 2 1 64 1 1 1 0.415
966 5 1 2 1 65 1 0 0 0.404
967 5 1 2 1 66 0 1 1 0.674
968 5 1 2 1 67 0 0 0 0.501
969 5 1 2 1 68 0 0 0 0.92
970 5 1 2 1 69 1 0 0 0.405
971 5 1 2 1 70 1 1 1 0.426
972 5 1 2 1 71 1 1 1 0.455
973 5 1 2 1 72 0 1 1 0.555
974 5 1 2 1 73 0 1 1 0.515
975 5 1 2 1 74 1 0 0 0.452
976 5 1 2 1 75 0 0 0 0.448
977 5 1 2 1 76 0 1 0 0.396
978 5 1 2 1 77 0 0 0 0.914
979 5 1 2 1 78 0 0 0 0.574
980 5 1 2 1 79 0 1 1 0.509
981 5 1 2 1 80 1 0 0 0.63
982 5 1 2 1 81 0 0 0 1.372
983 5 1 2 1 82 1 0 0 0.463
984 5 1 2 1 83 0 1 1 0.609
985 5 1 2 1 84 1 0 0 0.479
986 5 1 2 1 85 1 0 0 0.562
987 5 1 2 1 86 0 1 1 0.386
988 5 1 2 1 87 0 0 0 0.4
989 5 1 2 1 88 0 0 0 0.646
990 5 1 2 1 89 1 1 1 0.523
991 5 1 2 1 90 1 1 1 0.7
992 5 1 2 1 91 1 0 0 0.374
993 5 1 2 1 92 0 1 1 0.701
994 5 1 2 1 93 0 0 0 0.392
995 5 1 2 1 94 0 0 0 0.661
996 5 1 2 1 95 1 1 1 0.433
997 5 1 2 1 96 1 0 0 0.646
998 5 1 2 1 97 1 0 0 0.707
999 5 1 2 1 98 1 0 0 0.461
1000 5 1 2 1 99 1 1 1 0.377
1001 5 1 1 0 0 0 1 1 2.93
1002 5 1 1 0 1 0 1 1 0.917
1003 5 1 1 0 2 0 0 0 0.431
1004 5 1 1 0 3 0 0 0 0.532
1005 5 1 1 0 4 0 1 1 0.381
1006 5 1 1 0 5 1 0 1 0.531
1007 5 1 1 0 6 0 0 0 1.284
1008 5 1 1 0 7 1 1 1 0.362
1009 5 1 1 0 8 1 1 1 0.463
1010 5 1 1 0 9 1 1 1 0.411
1011 5 1 1 0 10 1 0 0 0.368
1012 5 1 1 0 11 1 1 1 0.559
1013 5 1 1 0 12 1 0 0 0.487
1014 5 1 1 0 13 1 1 1 0.281
1015 5 1 1 0 14 1 0 0 0.531
1016 5 1 1 0 15 0 0 0 0.548
1017 5 1 1 0 16 1 0 0 0.564
1018 5 1 1 0 17 0 1 1 0.396
1019 5 1 1 0 18 0 0 0 0.658
1020 5 1 1 0 19 1 0 0 0.406
1021 5 1 1 0 20 0 0 0 0.379
1022 5 1 1 0 21 1 1 1 0.338
1023 5 1 1 0 22 0 1 0 0.482
1024 5 1 1 0 23 1 0 0 2.189
1025 5 1 1 0 24 1 0 0 0.442
1026 5 1 1 0 25 0 0 0 0.462
1027 5 1 1 0 26 1 1 1 0.266
1028 5 1 1 0 27 0 0 0 0.3
1029 5 1 1 0 28 1 1 1 0.381
1030 5 1 1 0 29 0 1 1 0.46
1031 5 1 1 0 30 1 0 0 0.391
1032 5 1 1 0 31 0 0 1 0.477
1033 5 1 1 0 32 0 1 1 0.736
1034 5 1 1 0 33 1 1 1 0.338
1035 5 1 1 0 34 0 1 1 0.362
1036 5 1 1 0 35 1 1 1 0.313
1037 5 1 1 0 36 1 0 0 0.394
1038 5 1 1 0 37 1 0 0 0.464
1039 5 1 1 0 38 0 1 1 0.299
1040 5 1 1 0 39 0 1 1 0.804
1041 5 1 1 0 40 1 0 0 0.403
1042 5 1 1 0 41 0 1 1 0.361
1043 5 1 1 0 42 1 1 1 0.392
1044 5 1 1 0 43 0 0 0 0.406
1045 5 1 1 0 44 1 1 1 0.427
1046 5 1 1 0 45 0 0 0 0.432
1047 5 1 1 0 46 0 1 1 0.57
1048 5 1 1 0 47 0 1 1 0.41
1049 5 1 1 0 48 0 0 0 0.423
1050 5 1 1 0 49 0 1 1 0.396
1051 5 1 1 1 50 0 0 0 1.008
1052 5 1 1 1 51 1 1 1 0.312
1053 5 1 1 1 52 1 0 0 0.281
1054 5 1 1 1 53 0 0 1 0.291
1055 5 1 1 1 54 1 1 1 0.804
1056 5 1 1 1 55 1 0 0 0.276
1057 5 1 1 1 56 0 1 1 0.441
1058 5 1 1 1 57 0 1 1 0.589
1059 5 1 1 1 58 1 1 1 0.396
1060 5 1 1 1 59 1 0 0 0.474
1061 5 1 1 1 60 1 0 0 0.444
1062 5 1 1 1 61 1 1 1 0.353
1063 5 1 1 1 62 0 1 1 0.512
1064 5 1 1 1 63 1 0 0 0.426
1065 5 1 1 1 64 0 0 0 0.606
1066 5 1 1 1 65 0 1 1 0.284
1067 5 1 1 1 66 0 0 0 0.398
1068 5 1 1 1 67 0 0 0 0.388
1069 5 1 1 1 68 0 1 1 0.372
1070 5 1 1 1 69 0 1 1 0.627
1071 5 1 1 1 70 1 1 1 0.8
1072 5 1 1 1 71 1 1 1 0.48
1073 5 1 1 1 72 0 0 0 0.371
1074 5 1 1 1 73 0 1 1 0.458
1075 5 1 1 1 74 0 1 1 0.533
1076 5 1 1 1 75 1 0 0 0.51
1077 5 1 1 1 76 1 0 0 0.784
1078 5 1 1 1 77 1 1 1 0.488
1079 5 1 1 1 78 1 1 1 0.458
1080 5 1 1 1 79 0 0 0 0.557
1081 5 1 1 1 80 0 0 0 0.565
1082 5 1 1 1 81 0 1 1 0.315
1083 5 1 1 1 82 1 0 0 0.381
1084 5 1 1 1 83 1 0 0 0.695
1085 5 1 1 1 84 1 0 0 0.442
1086 5 1 1 1 85 1 1 1 0.446
1087 5 1 1 1 86 1 0 0 0.538
1088 5 1 1 1 87 0 0 0 0.522
1089 5 1 1 1 88 0 1 1 0.371
1090 5 1 1 1 89 1 0 0 0.594
1091 5 1 1 1 90 1 1 1 0.481
1092 5 1 1 1 91 1 1 1 0.452
1093 5 1 1 1 92 1 1 1 0.416
1094 5 1 1 1 93 0 0 0 0.413
1095 5 1 1 1 94 1 0 0 0.466
1096 5 1 1 1 95 0 0 0 0.502
1097 5 1 1 1 96 0 0 0 0.448
1098 5 1 1 1 97 1 1 1 0.468
1099 5 1 1 1 98 0 1 1 0.383
1100 5 1 1 1 99 0 0 0 0.414
1101 5 0 1 0 0 1 1 1 1.316
1102 5 0 1 0 1 0 0 0 0.497
1103 5 0 1 0 2 0 0 0 0.515
1104 5 0 1 0 3 0 0 0 0.437
1105 5 0 1 0 4 0 1 0 0.457
1106 5 0 1 0 5 1 1 1 0.509
1107 5 0 1 0 6 0 0 0 0.55
1108 5 0 1 0 7 0 0 0 0.559
1109 5 0 1 0 8 0 1 1 1.023
1110 5 0 1 0 9 0 1 0 1.246
1111 5 0 1 0 10 1 0 1 1.029
1112 5 0 1 0 11 0 0 0 0.386
1113 5 0 1 0 12 0 1 0 0.553
1114 5 0 1 0 13 0 1 0 0.457
1115 5 0 1 0 14 1 0 1 0.484
1116 5 0 1 0 15 1 1 1 0.511
1117 5 0 1 0 16 0 1 0 0.393
1118 5 0 1 0 17 0 0 0 0.414
1119 5 0 1 0 18 0 0 0 0.371
1120 5 0 1 0 19 1 0 1 0.521
1121 5 0 1 0 20 0 1 0 0.49
1122 5 0 1 0 21 0 0 0 0.38
1123 5 0 1 0 22 0 0 0 0.606
1124 5 0 1 0 23 0 1 1 0.733
1125 5 0 1 0 24 0 1 0 1.022
1126 5 0 1 0 25 1 0 1 0.709
1127 5 0 1 0 26 1 1 1 0.632
1128 5 0 1 0 27 0 1 0 0.413
1129 5 0 1 0 28 1 1 1 0.45
1130 5 0 1 0 29 0 0 0 0.694
1131 5 0 1 0 30 1 0 1 1.481
1132 5 0 1 0 31 0 1 0 0.704
1133 5 0 1 0 32 1 0 1 0.507
1134 5 0 1 0 33 1 0 1 0.725
1135 5 0 1 0 34 1 1 1 0.447
1136 5 0 1 0 35 1 1 1 0.459
1137 5 0 1 0 36 1 0 0 0.614
1138 5 0 1 0 37 1 1 1 0.732
1139 5 0 1 0 38 0 0 0 0.534
1140 5 0 1 0 39 0 1 0 0.527
1141 5 0 1 0 40 1 1 1 0.584
1142 5 0 1 0 41 1 1 1 0.439
1143 5 0 1 0 42 1 0 1 0.459
1144 5 0 1 0 43 0 1 0 0.431
1145 5 0 1 0 44 0 0 0 0.483
1146 5 0 1 0 45 0 0 0 0.433
1147 5 0 1 0 46 1 1 1 0.47
1148 5 0 1 0 47 0 0 0 0.545
1149 5 0 1 0 48 1 1 1 0.554
1150 5 0 1 0 49 1 1 1 0.482
1151 5 0 1 1 50 1 0 1 0.737
1152 5 0 1 1 51 0 1 0 0.539
1153 5 0 1 1 52 1 0 1 0.411
1154 5 0 1 1 53 1 1 1 0.489
1155 5 0 1 1 54 0 1 0 0.427
1156 5 0 1 1 55 0 0 0 0.399
1157 5 0 1 1 56 1 0 1 0.437
1158 5 0 1 1 57 0 1 0 0.585
1159 5 0 1 1 58 0 0 0 0.464
1160 5 0 1 1 59 1 1 1 0.403
1161 5 0 1 1 60 0 0 0 0.449
1162 5 0 1 1 61 1 1 1 0.458
1163 5 0 1 1 62 1 0 1 0.494
1164 5 0 1 1 63 0 1 0 0.487
1165 5 0 1 1 64 1 1 1 0.521
1166 5 0 1 1 65 1 0 1 1.002
1167 5 0 1 1 66 1 0 1 0.482
1168 5 0 1 1 67 0 0 0 0.461
1169 5 0 1 1 68 1 0 1 0.457
1170 5 0 1 1 69 0 0 0 0.42
1171 5 0 1 1 70 1 0 1 0.465
1172 5 0 1 1 71 0 1 0 0.685
1173 5 0 1 1 72 0 0 0 0.468
1174 5 0 1 1 73 1 0 1 0.448
1175 5 0 1 1 74 0 1 0 1.092
1176 5 0 1 1 75 1 0 1 0.376
1177 5 0 1 1 76 1 1 1 0.527
1178 5 0 1 1 77 1 0 1 0.44
1179 5 0 1 1 78 1 1 1 0.484
1180 5 0 1 1 79 0 1 0 0.455
1181 5 0 1 1 80 0 0 0 0.579
1182 5 0 1 1 81 1 1 1 0.362
1183 5 0 1 1 82 1 0 1 0.617
1184 5 0 1 1 83 0 1 0 0.407
1185 5 0 1 1 84 1 1 1 0.484
1186 5 0 1 1 85 0 0 0 0.487
1187 5 0 1 1 86 1 1 1 0.666
1188 5 0 1 1 87 1 0 1 0.729
1189 5 0 1 1 88 0 1 0 0.347
1190 5 0 1 1 89 1 0 1 0.603
1191 5 0 1 1 90 0 1 0 0.594
1192 5 0 1 1 91 0 1 0 0.528
1193 5 0 1 1 92 1 1 1 0.433
1194 5 0 1 1 93 1 1 1 0.39
1195 5 0 1 1 94 1 0 1 0.396
1196 5 0 1 1 95 0 0 0 0.386
1197 5 0 1 1 96 1 1 1 0.664
1198 5 0 1 1 97 0 1 0 0.988
1199 5 0 1 1 98 1 0 1 0.421
1200 5 0 1 1 99 0 0 0 0.746
1201 7 0 2 0 0 1 1 1 9.924
1202 7 0 2 0 1 1 0 1 6.684
1203 7 0 2 0 2 0 0 0 2.535
1204 7 0 2 0 3 1 0 1 3.04
1205 7 0 2 0 4 1 0 1 4.727
1206 7 0 2 0 5 1 0 1 1.989
1207 7 0 2 0 6 1 0 1 2.225
1208 7 0 2 0 7 0 1 0 4.766
1209 7 0 2 0 8 1 0 1 0.974
1210 7 0 2 0 9 0 0 0 1.823
1211 7 0 2 0 10 1 0 1 6.906
1212 7 0 2 0 11 1 0 1 2.59
1213 7 0 2 0 12 0 1 0 2.03
1214 7 0 2 0 13 1 1 1 2.809
1215 7 0 2 0 14 0 0 0 0.952
1216 7 0 2 0 15 1 1 1 1.778
1217 7 0 2 0 16 0 1 0 1.142
1218 7 0 2 0 17 0 0 0 1.376
1219 7 0 2 0 18 0 0 0 1.043
1220 7 0 2 0 19 0 0 0 0.913
1221 7 0 2 0 20 0 1 0 3.357
1222 7 0 2 0 21 1 0 1 2.353
1223 7 0 2 0 22 1 0 1 2.633
1224 7 0 2 0 23 1 1 1 2.35
1225 7 0 2 0 24 1 0 1 1.334
1226 7 0 2 0 25 1 1 1 1.985
1227 7 0 2 0 26 0 1 0 1.142
1228 7 0 2 0 27 1 0 1 1.273
1229 7 0 2 0 28 0 1 0 4.711
1230 7 0 2 0 29 0 1 0 1.392
1231 7 0 2 0 30 1 0 1 1.138
1232 7 0 2 0 31 1 0 1 1.053
1233 7 0 2 0 32 1 1 1 0.788
1234 7 0 2 0 33 0 1 0 0.828
1235 7 0 2 0 34 1 0 1 0.826
1236 7 0 2 0 35 1 0 1 0.728
1237 7 0 2 0 36 1 0 1 1.114
1238 7 0 2 0 37 1 0 1 3.264
1239 7 0 2 0 38 1 0 1 1.045
1240 7 0 2 0 39 0 0 0 2.099
1241 7 0 2 0 40 1 1 1 4.548
1242 7 0 2 0 41 1 1 1 0.756
1243 7 0 2 0 42 0 0 0 0.829
1244 7 0 2 0 43 0 1 0 1.836
1245 7 0 2 0 44 0 0 0 1.118
1246 7 0 2 0 45 1 1 1 2.249
1247 7 0 2 0 46 0 1 0 4.485
1248 7 0 2 0 47 1 0 1 1.104
1249 7 0 2 0 48 0 0 0 1.332
1250 7 0 2 0 49 0 1 0 1.833
1251 7 0 2 1 50 1 1 1 5.041
1253 8 0 0 0 0 1 0 1 2.877
1254 8 0 0 0 1 0 0 0 3.625
1255 8 0 0 0 2 1 1 1 0.483
1256 8 0 0 0 3 0 1 0 0.662
1257 8 0 0 0 4 1 0 1 1.97
1258 8 0 0 0 5 0 0 0 0.558
1259 8 0 0 0 6 0 1 0 0.653
1260 8 0 0 0 7 1 0 1 0.834
1261 8 0 0 0 8 1 0 1 0.711
1262 8 0 0 0 9 1 0 1 0.522
1263 8 0 0 0 10 1 1 1 0.675
1264 8 0 0 0 11 1 0 1 0.487
1265 8 0 0 0 12 0 0 0 0.418
1266 8 0 0 0 13 0 0 0 0.423
1267 8 0 0 0 14 0 1 0 0.66
1268 8 0 0 0 15 1 1 1 0.551
1269 8 0 0 0 16 0 1 0 0.552
1270 8 0 0 0 17 1 0 1 0.576
1271 8 0 0 0 18 0 0 0 0.559
1272 8 0 0 0 19 0 1 0 0.486
1273 8 0 0 0 20 0 1 0 0.665
1274 8 0 0 0 21 0 0 0 0.557
1275 8 0 0 0 22 1 1 1 0.661
1276 8 0 0 0 23 1 0 1 0.617
1277 8 0 0 0 24 0 1 0 0.606
1278 8 0 0 0 25 1 1 1 0.628
1279 8 0 0 0 26 0 0 0 0.554
1280 8 0 0 0 27 1 0 1 0.482
1281 8 0 0 0 28 1 1 1 0.693
1282 8 0 0 0 29 0 0 0 0.672
1283 8 0 0 0 30 0 1 0 0.627
1284 8 0 0 0 31 0 1 0 0.497
1285 8 0 0 0 32 1 0 1 0.547
1286 8 0 0 0 33 1 0 1 0.459
1287 8 0 0 0 34 1 1 1 0.487
1288 8 0 0 0 35 1 0 1 0.449
1289 8 0 0 0 36 1 1 1 0.453
1290 8 0 0 0 37 1 0 1 2.089
1291 8 0 0 0 38 0 0 0 0.442
1292 8 0 0 0 39 0 0 0 0.486
1293 8 0 0 0 40 0 1 0 0.48
1294 8 0 0 0 41 0 0 0 0.435
1295 8 0 0 0 42 0 0 0 0.447
1296 8 0 0 0 43 0 1 0 0.475
1297 8 0 0 0 44 1 0 1 0.526
1298 8 0 0 0 45 1 1 1 0.519
1299 8 0 0 0 46 1 1 1 0.92
1300 8 0 0 0 47 0 0 0 0.627
1301 8 0 0 0 48 0 0 0 1.009
1302 8 0 0 0 49 0 0 0 1.872
1303 8 0 0 1 50 1 1 1 1.51
1304 8 0 0 1 51 0 1 0 0.588
1305 8 0 0 1 52 0 1 0 0.587
1306 8 0 0 1 53 0 0 0 0.634
1307 8 0 0 1 54 1 0 1 0.663
1308 8 0 0 1 55 1 1 1 0.619
1309 8 0 0 1 56 0 0 0 0.657
1310 8 0 0 1 57 0 1 0 0.637
1311 8 0 0 1 58 1 1 1 0.65
1312 8 0 0 1 59 1 0 1 0.599
1313 8 0 0 1 60 1 0 1 0.677
1314 8 0 0 1 61 0 0 0 0.489
1315 8 0 0 1 62 0 1 0 0.571
1316 8 0 0 1 63 0 1 0 0.547
1317 8 0 0 1 64 1 1 1 0.483
1318 8 0 0 1 65 0 1 0 0.541
1319 8 0 0 1 66 1 1 1 0.485
1320 8 0 0 1 67 0 1 0 0.744
1321 8 0 0 1 68 0 0 0 0.769
1322 8 0 0 1 69 1 0 1 0.689
1323 8 0 0 1 70 1 0 1 0.66
1324 8 0 0 1 71 1 0 1 0.785
1325 8 0 0 1 72 1 1 1 0.608
1326 8 0 0 1 73 0 0 0 0.734
1327 8 0 0 1 74 1 1 1 0.668
1328 8 0 0 1 75 0 1 0 1.145
1329 8 0 0 1 76 0 1 0 0.708
1330 8 0 0 1 77 0 1 0 0.646
1331 8 0 0 1 78 1 0 1 0.651
1332 8 0 0 1 79 0 0 0 0.655
1333 8 0 0 1 80 0 0 0 0.676
1334 8 0 0 1 81 0 0 0 0.671
1335 8 0 0 1 82 0 1 0 0.739
1336 8 0 0 1 83 1 1 1 0.9
1337 8 0 0 1 84 0 0 0 0.816
1338 8 0 0 1 85 1 1 1 0.639
1339 8 0 0 1 86 1 1 1 0.588
1340 8 0 0 1 87 1 0 1 0.667
1341 8 0 0 1 88 1 1 1 0.607
1342 8 0 0 1 89 1 1 1 0.525
1343 8 0 0 1 90 1 1 1 0.622
1344 8 0 0 1 91 1 1 1 0.62
1345 8 0 0 1 92 1 1 1 0.65
1346 8 0 0 1 93 1 0 1 0.623
1347 8 0 0 1 94 1 0 1 1.476
1348 8 0 0 1 95 1 0 1 0.555
1349 8 0 0 1 96 0 1 0 0.579
1350 8 0 0 1 97 0 0 0 0.538
1351 8 0 0 1 98 0 1 0 0.602
1352 8 0 0 1 99 0 1 0 0.649
1353 8 1 0 0 0 0 0 0 3.541
1354 8 1 0 0 1 1 0 0 1.57
1355 8 1 0 0 2 1 0 0 1.565
1356 8 1 0 0 3 1 1 1 0.721
1357 8 1 0 0 4 1 0 1 0.531
1358 8 1 0 0 5 1 0 1 3.684
1359 8 1 0 0 6 1 0 0 1.244
1360 8 1 0 0 7 0 1 1 1.579
1361 8 1 0 0 8 0 0 0 0.926
1362 8 1 0 0 9 1 0 0 1.873
1363 8 1 0 0 10 0 1 1 1.202
1364 8 1 0 0 11 0 1 1 0.915
1365 8 1 0 0 12 0 1 1 0.702
1366 8 1 0 0 13 1 0 0 0.721
1367 8 1 0 0 14 1 1 1 0.563
1368 8 1 0 0 15 1 1 1 0.419
1369 8 1 0 0 16 0 1 1 0.4
1370 8 1 0 0 17 1 1 1 0.318
1371 8 1 0 0 18 0 0 0 0.367
1372 8 1 0 0 19 1 1 1 0.974
1373 8 1 0 0 20 1 0 0 0.471
1374 8 1 0 0 21 1 1 1 0.386
1375 8 1 0 0 22 1 0 0 0.336
1376 8 1 0 0 23 1 1 1 0.376
1377 8 1 0 0 24 1 1 1 0.399
1378 8 1 0 0 25 1 1 1 0.324
1379 8 1 0 0 26 0 1 1 0.301
1380 8 1 0 0 27 0 1 1 0.446
1381 8 1 0 0 28 0 1 1 0.562
1382 8 1 0 0 29 0 0 0 0.426
1383 8 1 0 0 30 1 1 1 0.359
1384 8 1 0 0 31 1 0 0 0.446
1385 8 1 0 0 32 0 0 0 0.49
1386 8 1 0 0 33 1 0 0 0.38
1387 8 1 0 0 34 1 1 1 0.434
1388 8 1 0 0 35 0 1 1 0.742
1389 8 1 0 0 36 1 0 0 0.584
1390 8 1 0 0 37 1 0 0 0.559
1391 8 1 0 0 38 0 1 1 0.51
1392 8 1 0 0 39 1 1 1 0.744
1393 8 1 0 0 40 1 1 1 0.505
1394 8 1 0 0 41 0 0 0 0.483
1395 8 1 0 0 42 0 0 0 0.542
1396 8 1 0 0 43 0 0 0 0.426
1397 8 1 0 0 44 0 0 0 0.631
1398 8 1 0 0 45 0 1 1 0.468
1399 8 1 0 0 46 0 1 1 0.463
1400 8 1 0 0 47 0 0 0 0.867
1401 8 1 0 0 48 0 0 0 0.551
1402 8 1 0 0 49 0 0 0 0.68
1403 8 1 0 1 50 0 1 1 2.067
1404 8 1 0 1 51 0 1 1 0.749
1405 8 1 0 1 52 0 1 1 0.67
1406 8 1 0 1 53 1 1 1 0.706
1407 8 1 0 1 54 0 0 0 0.444
1408 8 1 0 1 55 0 1 1 0.296
1409 8 1 0 1 56 1 1 1 0.321
1410 8 1 0 1 57 0 0 0 0.274
1411 8 1 0 1 58 0 0 0 0.444
1412 8 1 0 1 59 1 0 0 0.44
1413 8 1 0 1 60 0 0 0 0.324
1414 8 1 0 1 61 0 0 0 0.396
1415 8 1 0 1 62 1 0 0 0.714
1416 8 1 0 1 63 1 1 1 0.516
1417 8 1 0 1 64 1 0 0 0.326
1418 8 1 0 1 65 0 1 1 0.398
1419 8 1 0 1 66 1 0 0 0.419
1420 8 1 0 1 67 1 1 1 0.298
1421 8 1 0 1 68 0 1 1 0.419
1422 8 1 0 1 69 1 0 0 0.398
1423 8 1 0 1 70 0 0 0 0.451
1424 8 1 0 1 71 0 1 1 0.391
1425 8 1 0 1 72 1 1 1 0.581
1426 8 1 0 1 73 1 0 0 0.516
1427 8 1 0 1 74 1 1 1 0.501
1428 8 1 0 1 75 0 1 1 0.456
1429 8 1 0 1 76 0 1 1 0.531
1430 8 1 0 1 77 1 1 1 0.46
1431 8 1 0 1 78 0 0 0 0.6
1432 8 1 0 1 79 1 1 1 0.51
1433 8 1 0 1 80 1 1 1 0.408
1434 8 1 0 1 81 1 0 0 0.475
1435 8 1 0 1 82 1 0 0 0.494
1436 8 1 0 1 83 1 0 0 0.28
1437 8 1 0 1 84 0 0 0 0.489
1438 8 1 0 1 85 0 0 0 0.436
1439 8 1 0 1 86 0 0 0 0.432
1440 8 1 0 1 87 0 0 0 0.466
1441 8 1 0 1 88 1 0 0 1.062
1442 8 1 0 1 89 1 1 1 0.409
1443 8 1 0 1 90 0 1 1 0.408
1444 8 1 0 1 91 0 0 0 0.438
1445 8 1 0 1 92 1 1 1 0.578
1446 8 1 0 1 93 1 1 1 1.009
1447 8 1 0 1 94 1 0 0 0.681
1448 8 1 0 1 95 1 0 0 0.668
1449 8 1 0 1 96 0 0 0 0.432
1450 8 1 0 1 97 0 1 1 0.381
1451 8 1 0 1 98 0 1 1 0.339
1452 8 1 0 1 99 0 1 1 0.331
1453 8 1 1 0 0 1 0 0 8.016
1454 8 1 1 0 1 0 0 0 2.093
1455 8 1 1 0 2 1 0 0 1.279
1456 8 1 1 0 3 1 1 1 1.373
1457 8 1 1 0 4 0 0 0 1.696
1458 8 1 1 0 5 0 0 0 0.43
1459 8 1 1 0 6 1 1 1 0.386
1460 8 1 1 0 7 1 1 1 0.569
1461 8 1 1 0 8 1 1 1 0.425
1462 8 1 1 0 9 1 1 1 0.301
1463 8 1 1 0 10 0 1 1 1.534
1464 8 1 1 0 11 1 0 0 0.855
1465 8 1 1 0 12 1 1 1 0.436
1466 8 1 1 0 13 1 0 0 1.137
1467 8 1 1 0 14 0 0 0 0.572
1468 8 1 1 0 15 0 1 1 0.435
1469 8 1 1 0 16 0 0 0 0.6
1470 8 1 1 0 17 0 1 1 0.399
1471 8 1 1 0 18 1 0 0 0.412
1472 8 1 1 0 19 1 0 0 0.473
1473 8 1 1 0 20 0 1 1 0.628
1474 8 1 1 0 21 1 0 0 0.593
1475 8 1 1 0 22 0 1 1 0.792
1476 8 1 1 0 23 1 0 0 0.463
1477 8 1 1 0 24 1 1 1 0.474
1478 8 1 1 0 25 1 1 1 0.589
1479 8 1 1 0 26 0 0 0 0.563
1480 8 1 1 0 27 1 1 1 0.611
1481 8 1 1 0 28 0 1 1 0.81
1482 8 1 1 0 29 0 0 0 0.51
1483 8 1 1 0 30 1 0 0 0.679
1484 8 1 1 0 31 0 0 0 0.792
1485 8 1 1 0 32 1 1 1 0.545
1486 8 1 1 0 33 1 0 0 0.569
1487 8 1 1 0 34 0 0 0 0.553
1488 8 1 1 0 35 1 1 1 0.553
1489 8 1 1 0 36 0 1 1 0.85
1490 8 1 1 0 37 0 1 1 0.624
1491 8 1 1 0 38 1 1 1 0.485
1492 8 1 1 0 39 0 1 1 0.576
1493 8 1 1 0 40 0 1 1 0.623
1494 8 1 1 0 41 0 1 1 0.557
1495 8 1 1 0 42 0 0 0 0.413
1496 8 1 1 0 43 0 0 0 0.354
1497 8 1 1 0 44 0 0 0 0.306
1498 8 1 1 0 45 1 0 1 0.626
1499 8 1 1 0 46 1 1 1 0.96
1500 8 1 1 0 47 0 1 1 1.177
1501 8 1 1 0 48 1 0 0 0.555
1502 8 1 1 0 49 1 1 1 0.572
1503 8 1 1 1 50 0 1 1 2.277
1504 8 1 1 1 51 0 1 1 1.671
1505 8 1 1 1 52 0 0 0 1.151
1506 8 1 1 1 53 0 0 0 0.562
1507 8 1 1 1 54 1 0 0 1.034
1508 8 1 1 1 55 0 1 1 0.776
1509 8 1 1 1 56 0 0 0 0.529
1510 8 1 1 1 57 0 0 0 0.538
1511 8 1 1 1 58 1 1 1 0.698
1512 8 1 1 1 59 1 0 0 1.085
1513 8 1 1 1 60 1 1 1 0.634
1514 8 1 1 1 61 1 1 1 0.592
1515 8 1 1 1 62 1 1 1 0.542
1516 8 1 1 1 63 0 0 0 0.719
1517 8 1 1 1 64 1 1 1 0.561
1518 8 1 1 1 65 0 0 0 0.824
1519 8 1 1 1 66 0 1 1 0.663
1520 8 1 1 1 67 0 1 1 0.899
1521 8 1 1 1 68 0 0 0 0.695
1522 8 1 1 1 69 1 1 1 0.594
1523 8 1 1 1 70 1 0 0 0.865
1524 8 1 1 1 71 1 0 0 1.086
1525 8 1 1 1 72 1 1 1 0.779
1526 8 1 1 1 73 1 1 1 3.859
1527 8 1 1 1 74 1 0 0 0.701
1528 8 1 1 1 75 1 0 0 0.616
1529 8 1 1 1 76 0 0 0 0.67
1530 8 1 1 1 77 1 1 1 0.706
1531 8 1 1 1 78 0 0 0 0.733
1532 8 1 1 1 79 1 0 0 0.998
1533 8 1 1 1 80 0 1 1 1.655
1534 8 1 1 1 81 0 1 1 0.712
1535 8 1 1 1 82 0 1 1 0.442
1536 8 1 1 1 83 1 0 0 0.646
1537 8 1 1 1 84 1 1 1 0.715
1538 8 1 1 1 85 0 0 0 0.542
1539 8 1 1 1 86 0 1 1 0.678
1540 8 1 1 1 87 0 1 1 0.362
1541 8 1 1 1 88 0 0 0 0.441
1542 8 1 1 1 89 1 1 1 0.365
1543 8 1 1 1 90 0 1 1 0.748
1544 8 1 1 1 91 1 0 0 0.637
1545 8 1 1 1 92 0 0 0 0.458
1546 8 1 1 1 93 0 0 0 0.693
1547 8 1 1 1 94 0 1 1 0.76
1548 8 1 1 1 95 1 0 0 0.673
1549 8 1 1 1 96 1 0 0 0.453
1550 8 1 1 1 97 1 0 0 0.464
1551 8 1 1 1 98 0 1 1 0.419
1552 8 1 1 1 99 1 0 0 0.408
1553 8 1 2 0 0 0 1 1 6.251
