datID sessionID task diff block trial bigL smallL resp rt
1 2 0 0 0 0 1 1 1 0.95
2 2 0 0 0 1 1 0 1 0.552
3 2 0 0 0 2 0 0 0 0.571
4 2 0 0 0 3 1 1 1 0.491
5 2 0 0 0 4 1 1 1 0.589
6 2 0 0 0 5 1 0 1 0.66
7 2 0 0 0 6 0 1 0 0.672
8 2 0 0 0 7 1 1 1 0.46
9 2 0 0 0 8 1 0 0 0.43
10 2 0 0 0 9 0 0 0 0.683
11 2 0 0 0 10 1 0 1 0.439
12 2 0 0 0 11 0 1 0 0.531
13 2 0 0 0 12 1 1 1 0.604
14 2 0 0 0 13 1 1 1 0.432
15 2 0 0 0 14 1 1 1 0.469
16 2 0 0 0 15 1 0 1 0.736
17 2 0 0 0 16 0 1 0 0.434
18 2 0 0 0 17 1 0 1 0.519
19 2 0 0 0 18 0 0 0 0.752
20 2 0 0 0 19 0 0 0 0.45
21 2 0 0 0 20 1 0 1 0.51
22 2 0 0 0 21 1 1 1 0.655
23 2 0 0 0 22 0 0 0 0.757
24 2 0 0 0 23 0 1 0 0.637
25 2 0 0 0 24 1 1 1 0.49
26 2 0 0 0 25 0 0 0 0.532
27 2 0 0 0 26 0 1 0 0.685
28 2 0 0 0 27 1 1 1 0.409
29 2 0 0 0 28 0 0 0 0.486
30 2 0 0 0 29 0 0 0 0.497
31 2 0 0 0 30 0 0 0 0.443
32 2 0 0 0 31 0 0 0 0.431
33 2 0 0 0 32 1 0 1 0.772
34 2 0 0 0 33 1 0 1 0.772
35 2 0 0 0 34 1 0 1 0.46
36 2 0 0 0 35 0 0 0 0.83
37 2 0 0 0 36 1 1 0 0.812
38 2 0 0 0 37 0 1 0 0.595
39 2 0 0 0 38 1 0 1 0.585
40 2 0 0 0 39 0 0 0 0.409
41 2 0 0 0 40 0 1 0 0.526
42 2 0 0 0 41 1 0 1 0.751
43 2 0 0 0 42 0 1 0 0.512
44 2 0 0 0 43 0 0 0 0.601
45 2 0 0 0 44 0 0 0 0.36
46 2 0 0 0 45 0 1 0 0.487
47 2 0 0 0 46 0 1 0 0.386
48 2 0 0 0 47 0 0 0 0.84
49 2 0 0 0 48 1 1 1 0.357
50 2 0 0 0 49 0 1 0 0.476
51 2 0 0 1 50 0 0 0 1.403
52 2 0 0 1 51 1 1 1 0.42
53 2 0 0 1 52 1 0 1 0.569
54 2 0 0 1 53 1 1 1 0.544
55 2 0 0 1 54 1 0 1 0.425
56 2 0 0 1 55 1 1 1 0.445
57 2 0 0 1 56 1 1 1 0.394
58 2 0 0 1 57 0 1 0 0.402
59 2 0 0 1 58 0 1 0 0.36
60 2 0 0 1 59 1 0 1 0.359
61 2 0 0 1 60 0 0 0 0.518
62 2 0 0 1 61 0 1 0 0.591
63 2 0 0 1 62 1 0 1 0.462
64 2 0 0 1 63 0 1 0 0.513
65 2 0 0 1 64 1 0 1 1.058
66 2 0 0 1 65 0 0 0 0.481
67 2 0 0 1 66 1 1 1 0.684
68 2 0 0 1 67 1 1 1 0.304
69 2 0 0 1 68 0 0 0 0.385
70 2 0 0 1 69 1 0 1 0.542
71 2 0 0 1 70 0 1 0 0.511
72 2 0 0 1 71 1 1 1 0.624
73 2 0 0 1 72 0 0 0 0.446
74 2 0 0 1 73 1 0 1 0.578
75 2 0 0 1 74 0 1 0 0.617
76 2 0 0 1 75 0 0 0 0.567
77 2 0 0 1 76 1 1 1 0.341
78 2 0 0 1 77 0 1 0 0.452
79 2 0 0 1 78 1 0 1 0.408
80 2 0 0 1 79 0 0 0 0.445
81 2 0 0 1 80 1 0 1 0.401
82 2 0 0 1 81 0 0 0 0.453
83 2 0 0 1 82 0 1 0 0.593
84 2 0 0 1 83 1 0 1 0.392
85 2 0 0 1 84 1 0 1 0.494
86 2 0 0 1 85 1 1 1 0.472
87 2 0 0 1 86 0 1 0 0.476
88 2 0 0 1 87 1 0 1 0.518
89 2 0 0 1 88 0 1 0 0.44
90 2 0 0 1 89 1 1 1 0.483
91 2 0 0 1 90 0 1 0 0.447
92 2 0 0 1 91 0 1 0 0.579
93 2 0 0 1 92 0 1 0 0.626
94 2 0 0 1 93 1 0 1 0.328
95 2 0 0 1 94 1 1 1 0.512
96 2 0 0 1 95 0 0 0 0.482
97 2 0 0 1 96 0 0 0 0.597
98 2 0 0 1 97 0 1 0 0.819
99 2 0 0 1 98 1 1 1 0.483
100 2 0 0 1 99 1 1 1 0.325
101 2 1 0 0 0 1 0 0 0.496
102 2 1 0 0 1 0 0 0 0.474
103 2 1 0 0 2 1 1 1 0.213
104 2 1 0 0 3 1 1 1 0.497
105 2 1 0 0 4 1 0 0 0.283
106 2 1 0 0 5 0 1 1 0.325
107 2 1 0 0 6 1 1 1 0.396
108 2 1 0 0 7 0 1 1 0.267
109 2 1 0 0 8 1 1 1 0.269
110 2 1 0 0 9 0 1 1 0.296
111 2 1 0 0 10 0 1 1 0.241
112 2 1 0 0 11 0 1 1 0.308
113 2 1 0 0 12 0 0 0 0.325
114 2 1 0 0 13 1 0 0 0.205
115 2 1 0 0 14 0 0 0 0.362
116 2 1 0 0 15 1 0 0 0.352
117 2 1 0 0 16 1 0 0 0.28
118 2 1 0 0 17 1 0 0 0.299
119 2 1 0 0 18 0 0 0 0.236
120 2 1 0 0 19 1 1 1 0.32
121 2 1 0 0 20 0 0 0 0.433
122 2 1 0 0 21 1 1 1 0.422
123 2 1 0 0 22 1 1 0 0.371
124 2 1 0 0 23 0 0 0 0.419
125 2 1 0 0 24 1 1 1 0.328
126 2 1 0 0 25 0 1 1 0.374
127 2 1 0 0 26 1 0 0 0.333
128 2 1 0 0 27 1 0 0 0.398
129 2 1 0 0 28 0 1 1 0.38
130 2 1 0 0 29 1 0 0 0.402
131 2 1 0 0 30 0 0 0 0.432
132 2 1 0 0 31 1 0 0 0.397
133 2 1 0 0 32 1 0 0 0.514
134 2 1 0 0 33 0 1 1 0.363
135 2 1 0 0 34 1 0 0 0.299
136 2 1 0 0 35 0 1 1 0.371
137 2 1 0 0 36 0 0 0 0.353
138 2 1 0 0 37 1 1 1 0.246
139 2 1 0 0 38 1 1 1 0.346
140 2 1 0 0 39 1 0 0 0.329
141 2 1 0 0 40 0 0 0 0.353
142 2 1 0 0 41 0 1 1 0.369
143 2 1 0 0 42 0 0 0 0.248
144 2 1 0 0 43 0 1 1 0.283
145 2 1 0 0 44 0 1 0 0.197
146 2 1 0 0 45 1 1 1 0.738
147 2 1 0 0 46 0 0 0 0.299
148 2 1 0 0 47 1 1 0 0.341
149 2 1 0 0 48 1 1 1 0.411
150 2 1 0 0 49 1 1 1 0.257
151 2 1 0 1 50 0 1 1 0.679
152 2 1 0 1 51 1 0 0 0.306
153 2 1 0 1 52 0 1 1 0.324
154 2 1 0 1 53 0 1 1 0.525
155 2 1 0 1 54 1 0 0 0.43
156 2 1 0 1 55 1 0 0 0.347
157 2 1 0 1 56 1 0 0 0.371
158 2 1 0 1 57 0 1 1 0.33
159 2 1 0 1 58 1 0 0 0.345
160 2 1 0 1 59 0 0 0 0.657
161 2 1 0 1 60 1 1 1 0.326
162 2 1 0 1 61 1 0 0 0.366
163 2 1 0 1 62 0 0 0 0.348
164 2 1 0 1 63 0 0 0 0.356
165 2 1 0 1 64 0 0 0 0.283
166 2 1 0 1 65 0 0 0 0.325
167 2 1 0 1 66 0 1 1 0.373
168 2 1 0 1 67 1 1 1 0.403
169 2 1 0 1 68 0 0 0 0.289
170 2 1 0 1 69 1 1 1 0.219
171 2 1 0 1 70 0 1 1 0.616
172 2 1 0 1 71 1 0 0 0.365
173 2 1 0 1 72 1 1 1 0.676
174 2 1 0 1 73 0 0 0 0.784
175 2 1 0 1 74 0 0 0 0.384
176 2 1 0 1 75 1 0 0 0.247
177 2 1 0 1 76 1 0 0 0.61
178 2 1 0 1 77 1 1 1 0.408
179 2 1 0 1 78 0 1 1 0.373
180 2 1 0 1 79 0 1 1 0.716
181 2 1 0 1 80 1 1 1 0.27
182 2 1 0 1 81 1 1 1 0.399
183 2 1 0 1 82 1 0 0 0.421
184 2 1 0 1 83 0 0 0 0.314
185 2 1 0 1 84 0 0 0 0.226
186 2 1 0 1 85 1 1 1 0.269
187 2 1 0 1 86 1 0 0 0.353
188 2 1 0 1 87 0 0 0 0.387
189 2 1 0 1 88 0 0 0 0.433
190 2 1 0 1 89 0 1 1 0.341
191 2 1 0 1 90 0 0 0 0.389
192 2 1 0 1 91 1 0 0 0.354
193 2 1 0 1 92 1 1 1 0.282
194 2 1 0 1 93 0 1 1 0.404
195 2 1 0 1 94 0 0 0 0.281
196 2 1 0 1 95 0 1 1 0.359
197 2 1 0 1 96 0 1 1 0.272
198 2 1 0 1 97 1 1 1 0.328
199 2 1 0 1 98 0 1 1 0.433
200 2 1 0 1 99 1 1 1 0.238
201 2 1 2 0 0 1 1 1 1.398
202 2 1 2 0 1 0 0 0 0.335
203 2 1 2 0 2 0 0 0 0.589
204 2 1 2 0 3 1 1 1 0.396
205 2 1 2 0 4 0 0 0 0.377
206 2 1 2 0 5 0 1 1 0.184
207 2 1 2 0 6 0 1 1 0.347
208 2 1 2 0 7 1 1 1 0.275
209 2 1 2 0 8 0 1 1 0.309
210 2 1 2 0 9 0 1 1 0.253
211 2 1 2 0 10 0 0 0 0.313
212 2 1 2 0 11 0 1 1 0.401
213 2 1 2 0 12 1 0 0 0.382
214 2 1 2 0 13 1 1 1 0.276
215 2 1 2 0 14 1 1 1 0.398
216 2 1 2 0 15 1 1 1 0.316
217 2 1 2 0 16 0 1 1 0.307
218 2 1 2 0 17 0 1 1 0.341
219 2 1 2 0 18 0 1 1 0.357
220 2 1 2 0 19 1 1 1 0.348
221 2 1 2 0 20 0 1 1 0.427
222 2 1 2 0 21 0 0 0 0.447
223 2 1 2 0 22 0 0 0 0.491
224 2 1 2 0 23 0 0 0 0.254
225 2 1 2 0 24 0 1 1 0.358
226 2 1 2 0 25 1 0 0 0.653
227 2 1 2 0 26 0 1 1 0.33
228 2 1 2 0 27 0 0 0 0.45
229 2 1 2 0 28 1 1 1 0.357
230 2 1 2 0 29 0 0 0 0.445
231 2 1 2 0 30 0 0 0 0.481
232 2 1 2 0 31 0 0 0 0.397
233 2 1 2 0 32 0 0 0 0.296
234 2 1 2 0 33 1 0 0 0.441
235 2 1 2 0 34 1 1 1 0.373
236 2 1 2 0 35 0 0 0 0.364
237 2 1 2 0 36 1 1 1 0.331
238 2 1 2 0 37 1 1 1 0.651
239 2 1 2 0 38 1 1 1 0.416
240 2 1 2 0 39 0 0 0 0.301
241 2 1 2 0 40 1 0 0 0.231
242 2 1 2 0 41 1 0 0 0.378
243 2 1 2 0 42 1 0 0 0.274
244 2 1 2 0 43 0 0 0 0.508
245 2 1 2 0 44 1 0 0 0.382
246 2 1 2 0 45 1 0 0 0.22
247 2 1 2 0 46 1 1 1 0.48
248 2 1 2 0 47 1 0 0 0.483
249 2 1 2 0 48 1 0 0 0.366
250 2 1 2 0 49 0 0 1 0.403
251 2 1 2 1 50 1 0 0 1.08
252 2 1 2 1 51 1 0 0 0.293
253 2 1 2 1 52 1 0 0 0.279
254 2 1 2 1 53 0 1 1 0.329
255 2 1 2 1 54 1 1 1 0.369
256 2 1 2 1 55 0 0 0 0.624
257 2 1 2 1 56 1 0 0 0.356
258 2 1 2 1 57 0 0 0 0.467
259 2 1 2 1 58 1 0 0 0.384
260 2 1 2 1 59 0 1 1 0.35
261 2 1 2 1 60 1 1 1 0.35
262 2 1 2 1 61 0 0 0 0.491
263 2 1 2 1 62 1 1 1 0.459
264 2 1 2 1 63 1 0 0 0.272
265 2 1 2 1 64 0 1 1 0.321
266 2 1 2 1 65 0 0 0 0.482
267 2 1 2 1 66 1 0 0 0.478
268 2 1 2 1 67 1 0 0 0.344
269 2 1 2 1 68 0 1 1 0.408
270 2 1 2 1 69 1 0 0 0.453
271 2 1 2 1 70 1 0 0 0.529
272 2 1 2 1 71 0 1 1 0.322
273 2 1 2 1 72 1 1 1 0.259
274 2 1 2 1 73 0 1 1 0.285
275 2 1 2 1 74 0 0 0 0.35
276 2 1 2 1 75 1 1 1 0.565
277 2 1 2 1 76 0 1 1 0.282
278 2 1 2 1 77 1 1 1 0.356
279 2 1 2 1 78 0 0 0 0.275
280 2 1 2 1 79 0 1 1 0.341
281 2 1 2 1 80 1 1 1 0.308
282 2 1 2 1 81 0 1 1 0.373
283 2 1 2 1 82 0 0 0 0.308
284 2 1 2 1 83 1 1 1 0.364
285 2 1 2 1 84 0 1 1 0.355
286 2 1 2 1 85 1 0 0 0.37
287 2 1 2 1 86 0 1 1 0.393
288 2 1 2 1 87 0 0 0 0.215
289 2 1 2 1 88 1 0 0 0.523
290 2 1 2 1 89 0 1 1 0.364
291 2 1 2 1 90 1 1 1 0.419
292 2 1 2 1 91 0 1 1 0.337
293 2 1 2 1 92 1 1 1 0.505
294 2 1 2 1 93 0 1 0 0.217
295 2 1 2 1 94 1 0 0 0.421
296 2 1 2 1 95 1 0 0 0.282
297 2 1 2 1 96 1 1 1 0.308
298 2 1 2 1 97 1 0 0 0.429
299 2 1 2 1 98 1 1 1 0.649
300 2 1 2 1 99 0 0 0 0.405
301 2 0 2 0 0 1 1 1 1.215
302 2 0 2 0 1 0 1 0 1.063
303 2 0 2 0 2 0 1 1 1.204
304 2 0 2 0 3 1 1 1 0.941
305 2 0 2 0 4 0 1 0 0.927
306 2 0 2 0 5 0 0 0 1.721
307 2 0 2 0 6 1 0 0 2.999
308 2 0 2 0 7 0 1 0 1.008
309 2 0 2 0 8 1 0 1 0.672
310 2 0 2 0 9 0 0 0 0.891
311 2 0 2 0 10 1 1 1 0.589
312 2 0 2 0 11 1 0 1 0.876
313 2 0 2 0 12 0 0 0 0.712
314 2 0 2 0 13 1 1 1 0.787
315 2 0 2 0 14 0 1 0 0.738
316 2 0 2 0 15 1 0 1 1.74
317 2 0 2 0 16 0 0 0 0.793
318 2 0 2 0 17 1 1 1 0.545
319 2 0 2 0 18 1 0 1 0.521
320 2 0 2 0 19 1 0 1 0.594
321 2 0 2 0 20 1 0 1 0.704
322 2 0 2 0 21 0 1 0 0.339
323 2 0 2 0 22 1 1 1 0.539
324 2 0 2 0 23 0 1 0 0.515
325 2 0 2 0 24 0 0 0 0.541
326 2 0 2 0 25 0 0 0 0.526
327 2 0 2 0 26 0 1 0 1.391
328 2 0 2 0 27 1 1 1 0.777
329 2 0 2 0 28 1 0 1 1.353
330 2 0 2 0 29 1 1 1 0.556
331 2 0 2 0 30 1 0 1 0.436
332 2 0 2 0 31 1 0 1 0.8
333 2 0 2 0 32 1 0 1 0.744
334 2 0 2 0 33 0 1 0 0.609
335 2 0 2 0 34 1 0 1 0.471
336 2 0 2 0 35 0 0 0 0.443
337 2 0 2 0 36 0 0 0 0.831
338 2 0 2 0 37 0 0 0 0.533
339 2 0 2 0 38 1 0 1 0.734
340 2 0 2 0 39 0 0 0 0.672
341 2 0 2 0 40 0 1 0 0.932
342 2 0 2 0 41 1 0 1 0.638
343 2 0 2 0 42 1 0 1 0.859
344 2 0 2 0 43 0 0 0 0.504
345 2 0 2 0 44 0 1 0 0.866
346 2 0 2 0 45 1 1 1 0.423
347 2 0 2 0 46 1 0 1 0.876
348 2 0 2 0 47 0 0 0 0.76
349 2 0 2 0 48 1 0 1 0.761
350 2 0 2 0 49 0 1 0 0.586
351 2 0 2 1 50 0 0 0 2.068
352 2 0 2 1 51 1 1 1 0.422
353 2 0 2 1 52 1 0 1 0.835
354 2 0 2 1 53 0 0 0 0.473
355 2 0 2 1 54 0 1 0 0.748
356 2 0 2 1 55 0 1 0 0.557
357 2 0 2 1 56 0 1 0 0.509
358 2 0 2 1 57 0 0 0 0.567
359 2 0 2 1 58 0 0 0 0.711
360 2 0 2 1 59 0 1 0 0.447
361 2 0 2 1 60 1 0 1 0.403
362 2 0 2 1 61 0 0 0 0.593
363 2 0 2 1 62 1 0 1 0.464
364 2 0 2 1 63 0 1 0 0.643
365 2 0 2 1 64 1 1 1 0.624
366 2 0 2 1 65 1 0 0 0.461
367 2 0 2 1 66 0 1 0 0.689
368 2 0 2 1 67 1 1 1 0.58
369 2 0 2 1 68 0 0 0 0.635
370 2 0 2 1 69 1 1 1 0.729
371 2 0 2 1 70 0 1 1 0.659
372 2 0 2 1 71 0 0 1 0.639
373 2 0 2 1 72 1 0 1 0.668
374 2 0 2 1 73 1 1 1 1.024
375 2 0 2 1 74 1 1 1 0.679
376 2 0 2 1 75 1 1 1 0.507
377 2 0 2 1 76 1 1 1 0.396
378 2 0 2 1 77 0 0 0 0.49
379 2 0 2 1 78 1 0 1 0.829
380 2 0 2 1 79 0 1 0 0.779
381 2 0 2 1 80 1 1 1 0.683
382 2 0 2 1 81 1 0 1 1.607
383 2 0 2 1 82 0 1 0 1.017
384 2 0 2 1 83 0 0 0 0.785
385 2 0 2 1 84 0 1 0 0.73
386 2 0 2 1 85 1 0 1 0.532
387 2 0 2 1 86 1 1 1 1.364
388 2 0 2 1 87 0 1 0 0.863
389 2 0 2 1 88 1 1 1 0.62
390 2 0 2 1 89 1 1 1 0.506
391 2 0 2 1 90 1 1 1 1.588
392 2 0 2 1 91 0 1 0 0.615
393 2 0 2 1 92 1 1 1 0.797
394 2 0 2 1 93 0 0 0 0.5
395 2 0 2 1 94 0 1 1 0.519
396 2 0 2 1 95 0 0 0 0.544
397 2 0 2 1 96 0 0 0 0.48
398 2 0 2 1 97 1 1 1 0.691
399 2 0 2 1 98 0 0 0 1.31
400 2 0 2 1 99 1 1 1 0.721
401 2 1 1 0 0 0 1 1 1.384
402 2 1 1 0 1 1 0 0 0.443
403 2 1 1 0 2 0 1 1 0.223
404 2 1 1 0 3 0 1 1 0.312
405 2 1 1 0 4 1 1 1 0.377
406 2 1 1 0 5 1 0 0 0.303
407 2 1 1 0 6 0 0 0 0.617
408 2 1 1 0 7 1 1 1 0.351
409 2 1 1 0 8 0 0 0 0.31
410 2 1 1 0 9 1 1 1 0.391
411 2 1 1 0 10 1 0 0 0.277
412 2 1 1 0 11 1 1 1 0.294
413 2 1 1 0 12 0 0 0 0.287
414 2 1 1 0 13 1 0 0 0.386
415 2 1 1 0 14 1 1 1 0.368
416 2 1 1 0 15 1 0 0 0.376
417 2 1 1 0 16 1 1 1 0.382
418 2 1 1 0 17 0 1 1 0.555
419 2 1 1 0 18 1 1 1 0.611
420 2 1 1 0 19 1 0 0 0.385
421 2 1 1 0 20 1 0 0 0.296
422 2 1 1 0 21 0 0 0 0.265
423 2 1 1 0 22 0 1 1 0.227
424 2 1 1 0 23 0 0 0 0.406
425 2 1 1 0 24 1 1 1 0.308
426 2 1 1 0 25 0 0 0 0.309
427 2 1 1 0 26 0 0 0 0.278
428 2 1 1 0 27 0 0 0 0.216
429 2 1 1 0 28 1 1 1 0.412
430 2 1 1 0 29 0 0 0 0.281
431 2 1 1 0 30 0 0 0 0.307
432 2 1 1 0 31 0 0 0 0.276
433 2 1 1 0 32 0 1 1 0.318
434 2 1 1 0 33 1 1 1 0.407
435 2 1 1 0 34 0 1 1 0.204
436 2 1 1 0 35 1 1 1 0.353
437 2 1 1 0 36 0 0 0 0.233
438 2 1 1 0 37 0 0 0 0.235
439 2 1 1 0 38 0 1 1 0.357
440 2 1 1 0 39 0 1 1 0.196
441 2 1 1 0 40 0 1 1 0.257
442 2 1 1 0 41 0 1 1 0.227
443 2 1 1 0 42 1 1 1 0.183
444 2 1 1 0 43 1 0 0 0.309
445 2 1 1 0 44 0 0 0 0.269
446 2 1 1 0 45 1 1 1 0.328
447 2 1 1 0 46 0 0 0 0.328
448 2 1 1 0 47 0 1 1 0.216
449 2 1 1 0 48 0 1 1 0.221
450 2 1 1 0 49 1 1 1 0.328
451 2 1 1 1 50 0 0 0 0.781
452 2 1 1 1 51 0 1 1 0.254
453 2 1 1 1 52 0 1 1 0.297
454 2 1 1 1 53 0 1 1 0.308
455 2 1 1 1 54 1 0 0 0.365
456 2 1 1 1 55 0 1 1 0.298
457 2 1 1 1 56 0 1 1 0.284
458 2 1 1 1 57 1 1 1 0.309
459 2 1 1 1 58 1 0 0 0.303
460 2 1 1 1 59 1 1 1 0.231
461 2 1 1 1 60 0 0 0 0.25
462 2 1 1 1 61 1 0 0 0.366
463 2 1 1 1 62 1 0 0 0.317
464 2 1 1 1 63 1 0 0 0.231
465 2 1 1 1 64 1 0 0 0.273
466 2 1 1 1 65 0 0 0 0.236
467 2 1 1 1 66 0 1 1 0.272
468 2 1 1 1 67 0 0 0 0.266
469 2 1 1 1 68 0 1 1 0.357
470 2 1 1 1 69 1 0 0 0.163
471 2 1 1 1 70 1 0 1 0.106
472 2 1 1 1 71 1 0 0 0.298
473 2 1 1 1 72 0 1 1 0.227
474 2 1 1 1 73 1 0 0 0.559
475 2 1 1 1 74 0 0 0 0.198
476 2 1 1 1 75 1 1 1 0.435
477 2 1 1 1 76 1 1 1 0.191
478 2 1 1 1 77 0 0 0 0.267
479 2 1 1 1 78 1 0 0 0.286
480 2 1 1 1 79 0 0 0 0.295
481 2 1 1 1 80 0 1 1 0.433
482 2 1 1 1 81 1 0 0 0.326
483 2 1 1 1 82 0 0 1 0.366
484 2 1 1 1 83 1 1 1 0.389
485 2 1 1 1 84 1 0 0 0.306
486 2 1 1 1 85 1 0 0 0.274
487 2 1 1 1 86 1 1 1 0.261
488 2 1 1 1 87 0 1 1 0.231
489 2 1 1 1 88 1 0 0 0.131
490 2 1 1 1 89 1 1 1 0.266
491 2 1 1 1 90 0 1 1 0.445
492 2 1 1 1 91 0 0 0 0.281
493 2 1 1 1 92 1 1 1 0.251
494 2 1 1 1 93 1 0 0 0.318
495 2 1 1 1 94 0 1 1 0.271
496 2 1 1 1 95 1 1 1 0.369
497 2 1 1 1 96 1 1 1 0.24
498 2 1 1 1 97 0 0 0 0.251
499 2 1 1 1 98 1 0 0 0.311
500 2 1 1 1 99 1 1 1 0.343
501 2 0 1 0 0 1 0 1 0.661
502 2 0 1 0 1 0 1 0 0.498
503 2 0 1 0 2 1 0 0 0.372
504 2 0 1 0 3 0 0 0 0.443
505 2 0 1 0 4 0 0 0 0.374
506 2 0 1 0 5 1 1 1 0.285
507 2 0 1 0 6 1 0 1 0.551
508 2 0 1 0 7 0 1 0 0.271
509 2 0 1 0 8 0 1 0 0.522
510 2 0 1 0 9 1 0 1 0.283
511 2 0 1 0 10 0 0 0 0.365
512 2 0 1 0 11 0 0 0 0.307
513 2 0 1 0 12 1 1 1 0.26
514 2 0 1 0 13 1 0 0 0.246
515 2 0 1 0 14 1 1 1 0.543
516 2 0 1 0 15 1 0 1 0.463
517 2 0 1 0 16 1 1 1 0.347
518 2 0 1 0 17 1 1 1 0.354
519 2 0 1 0 18 1 1 1 0.354
520 2 0 1 0 19 0 0 0 0.361
521 2 0 1 0 20 1 1 1 0.256
522 2 0 1 0 21 0 0 0 0.387
523 2 0 1 0 22 0 1 0 0.697
524 2 0 1 0 23 1 0 1 0.572
525 2 0 1 0 24 1 1 1 0.308
526 2 0 1 0 25 1 1 1 0.244
527 2 0 1 0 26 0 1 1 0.263
528 2 0 1 0 27 1 0 1 0.481
529 2 0 1 0 28 0 1 0 0.533
530 2 0 1 0 29 0 1 1 0.254
531 2 0 1 0 30 1 0 1 0.503
532 2 0 1 0 31 0 1 0 0.507
533 2 0 1 0 32 1 0 1 0.484
534 2 0 1 0 33 0 1 0 0.431
535 2 0 1 0 34 0 0 0 0.388
536 2 0 1 0 35 1 1 1 0.378
537 2 0 1 0 36 0 1 0 0.52
538 2 0 1 0 37 1 0 1 0.457
539 2 0 1 0 38 1 1 1 0.366
540 2 0 1 0 39 1 0 1 0.589
541 2 0 1 0 40 0 0 0 0.388
542 2 0 1 0 41 0 1 0 0.53
543 2 0 1 0 42 1 0 0 0.435
544 2 0 1 0 43 0 1 0 0.678
545 2 0 1 0 44 0 0 0 0.386
546 2 0 1 0 45 0 1 1 0.304
547 2 0 1 0 46 0 1 0 0.529
548 2 0 1 0 47 0 0 0 0.418
549 2 0 1 0 48 1 0 1 0.511
550 2 0 1 0 49 1 0 1 0.385
551 2 0 1 1 50 0 0 0 0.725
552 2 0 1 1 51 1 1 1 0.303
553 2 0 1 1 52 1 1 1 0.416
554 2 0 1 1 53 0 1 0 0.43
555 2 0 1 1 54 0 1 0 0.506
556 2 0 1 1 55 0 0 0 0.388
557 2 0 1 1 56 0 0 0 0.369
558 2 0 1 1 57 0 0 0 0.297
559 2 0 1 1 58 1 0 1 0.402
560 2 0 1 1 59 1 1 1 0.312
561 2 0 1 1 60 0 0 0 0.345
562 2 0 1 1 61 1 0 1 0.552
563 2 0 1 1 62 1 1 1 0.351
564 2 0 1 1 63 0 1 0 0.392
565 2 0 1 1 64 0 1 0 0.558
566 2 0 1 1 65 1 0 1 0.413
567 2 0 1 1 66 0 1 0 0.554
568 2 0 1 1 67 1 1 1 0.469
569 2 0 1 1 68 0 0 0 0.48
570 2 0 1 1 69 0 1 0 0.506
571 2 0 1 1 70 1 1 1 0.492
572 2 0 1 1 71 0 0 0 0.374
573 2 0 1 1 72 1 0 1 0.445
574 2 0 1 1 73 0 0 0 0.375
575 2 0 1 1 74 1 1 1 0.286
576 2 0 1 1 75 0 0 0 0.551
577 2 0 1 1 76 0 1 0 0.552
578 2 0 1 1 77 0 0 0 0.448
579 2 0 1 1 78 1 0 1 0.436
580 2 0 1 1 79 1 0 1 0.345
581 2 0 1 1 80 1 1 1 0.528
582 2 0 1 1 81 1 1 1 0.417
583 2 0 1 1 82 1 0 1 0.382
584 2 0 1 1 83 0 1 0 0.267
585 2 0 1 1 84 1 0 1 0.439
586 2 0 1 1 85 1 1 1 0.322
587 2 0 1 1 86 1 1 1 0.331
588 2 0 1 1 87 0 1 0 0.451
589 2 0 1 1 88 1 1 1 0.495
590 2 0 1 1 89 0 0 0 0.425
591 2 0 1 1 90 0 0 0 0.414
592 2 0 1 1 91 0 0 0 0.323
593 2 0 1 1 92 1 0 1 0.459
594 2 0 1 1 93 0 1 0 0.471
595 2 0 1 1 94 0 0 0 0.401
596 2 0 1 1 95 1 1 1 0.359
597 2 0 1 1 96 0 0 0 0.382
598 2 0 1 1 97 1 1 1 0.381
599 2 0 1 1 98 1 0 1 0.931
600 2 0 1 1 99 0 1 0 0.429
601 5 1 0 0 0 0 1 1 1.123
602 5 1 0 0 1 0 1 1 1.078
603 5 1 0 0 2 1 1 1 1.422
604 5 1 0 0 3 1 1 1 0.903
605 5 1 0 0 4 0 1 1 1.643
606 5 1 0 0 5 0 0 0 0.891
607 5 1 0 0 6 0 1 1 1.607
608 5 1 0 0 7 1 0 1 1.209
609 5 1 0 0 8 0 0 0 1.065
610 5 1 0 0 9 1 0 0 1.463
611 5 1 0 0 10 0 0 0 1.175
612 5 1 0 0 11 0 1 1 0.785
613 5 1 0 0 12 0 1 1 0.769
614 5 1 0 0 13 0 0 0 0.746
615 5 1 0 0 14 0 1 1 0.763
616 5 1 0 0 15 0 0 0 0.508
617 5 1 0 0 16 1 0 1 0.958
618 5 1 0 0 17 1 1 1 1.663
619 5 1 0 0 18 0 1 1 0.952
620 5 1 0 0 19 0 0 0 0.498
621 5 1 0 0 20 0 1 1 0.42
622 5 1 0 0 21 1 0 0 0.509
623 5 1 0 0 22 0 1 1 0.575
624 5 1 0 0 23 1 1 1 0.646
625 5 1 0 0 24 0 0 0 0.563
626 5 1 0 0 25 1 0 0 0.907
627 5 1 0 0 26 1 1 1 0.422
628 5 1 0 0 27 0 1 1 1.035
629 5 1 0 0 28 1 1 1 0.601
630 5 1 0 0 29 1 1 1 0.423
631 5 1 0 0 30 0 1 1 0.46
632 5 1 0 0 31 1 0 0 0.472
633 5 1 0 0 32 1 1 1 0.762
634 5 1 0 0 33 0 0 0 0.499
635 5 1 0 0 34 1 1 1 0.461
636 5 1 0 0 35 0 0 0 0.488
637 5 1 0 0 36 1 0 0 0.458
638 5 1 0 0 37 1 0 0 0.342
639 5 1 0 0 38 1 1 1 0.382
640 5 1 0 0 39 0 1 1 0.516
641 5 1 0 0 40 1 0 0 0.397
642 5 1 0 0 41 1 1 1 0.531
643 5 1 0 0 42 1 1 1 0.548
644 5 1 0 0 43 0 1 1 0.364
645 5 1 0 0 44 1 1 1 0.419
646 5 1 0 0 45 0 1 1 0.648
647 5 1 0 0 46 1 0 0 0.397
648 5 1 0 0 47 1 1 1 0.643
649 5 1 0 0 48 0 0 0 0.383
650 5 1 0 0 49 0 1 1 0.341
651 5 1 0 1 50 0 0 0 1.467
652 5 1 0 1 51 0 0 0 0.458
653 5 1 0 1 52 0 0 0 0.382
654 5 1 0 1 53 1 1 1 0.556
655 5 1 0 1 54 1 0 0 0.756
656 5 1 0 1 55 0 0 0 0.597
657 5 1 0 1 56 0 0 0 0.403
658 5 1 0 1 57 1 1 1 0.441
659 5 1 0 1 58 1 0 0 0.957
660 5 1 0 1 59 0 0 0 0.359
661 5 1 0 1 60 0 1 1 0.47
662 5 1 0 1 61 1 0 0 0.497
663 5 1 0 1 62 0 0 0 0.38
664 5 1 0 1 63 1 0 1 0.402
665 5 1 0 1 64 0 1 1 0.663
666 5 1 0 1 65 1 1 1 0.731
667 5 1 0 1 66 0 1 1 0.341
668 5 1 0 1 67 1 0 0 0.389
669 5 1 0 1 68 1 0 0 0.443
670 5 1 0 1 69 0 1 1 0.503
671 5 1 0 1 70 0 0 0 1.289
672 5 1 0 1 71 1 1 1 0.463
673 5 1 0 1 72 1 0 0 0.49
674 5 1 0 1 73 0 1 1 0.412
675 5 1 0 1 74 1 1 1 0.505
676 5 1 0 1 75 0 1 1 0.388
677 5 1 0 1 76 0 1 1 0.33
678 5 1 0 1 77 0 0 0 0.354
679 5 1 0 1 78 0 0 0 0.417
680 5 1 0 1 79 0 0 0 0.367
681 5 1 0 1 80 1 0 0 0.414
682 5 1 0 1 81 1 0 0 0.339
683 5 1 0 1 82 1 0 0 0.347
684 5 1 0 1 83 1 1 1 0.37
685 5 1 0 1 84 0 0 0 0.401
686 5 1 0 1 85 1 1 1 0.431
687 5 1 0 1 86 0 0 0 0.307
688 5 1 0 1 87 1 1 1 0.524
689 5 1 0 1 88 0 1 0 0.397
690 5 1 0 1 89 1 1 1 0.763
691 5 1 0 1 90 1 0 0 0.524
692 5 1 0 1 91 1 0 0 0.509
693 5 1 0 1 92 0 0 0 0.446
694 5 1 0 1 93 1 0 0 0.482
695 5 1 0 1 94 1 1 1 0.493
696 5 1 0 1 95 1 0 0 0.463
697 5 1 0 1 96 1 1 1 0.451
698 5 1 0 1 97 0 1 1 0.519
699 5 1 0 1 98 0 0 0 0.732
700 5 1 0 1 99 1 0 0 0.598
701 5 0 0 0 0 1 1 1 0.835
702 5 0 0 0 1 0 0 0 0.657
703 5 0 0 0 2 1 1 1 0.597
704 5 0 0 0 3 0 1 0 0.404
705 5 0 0 0 4 0 0 0 0.505
706 5 0 0 0 5 1 1 1 0.539
707 5 0 0 0 6 1 1 1 0.507
708 5 0 0 0 7 1 1 1 0.485
709 5 0 0 0 8 0 1 0 0.423
710 5 0 0 0 9 0 0 0 0.411
711 5 0 0 0 10 1 1 1 0.401
712 5 0 0 0 11 0 1 0 0.567
713 5 0 0 0 12 1 1 1 0.438
714 5 0 0 0 13 0 0 0 0.395
715 5 0 0 0 14 0 0 0 0.481
716 5 0 0 0 15 1 1 1 0.412
717 5 0 0 0 16 1 1 1 0.497
718 5 0 0 0 17 1 0 0 0.491
719 5 0 0 0 18 1 0 1 0.781
720 5 0 0 0 19 1 0 1 0.573
721 5 0 0 0 20 1 0 1 0.509
722 5 0 0 0 21 1 0 1 0.406
723 5 0 0 0 22 1 0 1 0.596
724 5 0 0 0 23 1 0 1 0.371
725 5 0 0 0 24 1 1 1 0.33
726 5 0 0 0 25 0 1 0 0.53
727 5 0 0 0 26 0 1 0 0.451
728 5 0 0 0 27 0 1 0 0.487
729 5 0 0 0 28 1 0 1 0.498
730 5 0 0 0 29 0 0 0 1.044
731 5 0 0 0 30 1 0 1 0.49
732 5 0 0 0 31 0 1 0 0.668
733 5 0 0 0 32 0 1 0 0.993
734 5 0 0 0 33 0 1 0 0.457
735 5 0 0 0 34 1 0 1 0.519
736 5 0 0 0 35 0 0 0 0.681
737 5 0 0 0 36 1 1 1 0.628
738 5 0 0 0 37 1 1 1 0.61
739 5 0 0 0 38 0 1 0 0.464
740 5 0 0 0 39 1 0 1 0.443
741 5 0 0 0 40 0 0 0 0.567
742 5 0 0 0 41 1 0 1 0.447
743 5 0 0 0 42 0 1 0 0.499
744 5 0 0 0 43 0 0 0 0.453
745 5 0 0 0 44 1 1 1 0.393
746 5 0 0 0 45 0 1 0 0.695
747 5 0 0 0 46 1 1 1 0.346
748 5 0 0 0 47 0 1 0 0.53
749 5 0 0 0 48 0 0 0 0.459
750 5 0 0 0 49 0 1 0 0.579
751 5 0 0 1 50 0 1 0 1.219
752 5 0 0 1 51 1 0 1 0.555
753 5 0 0 1 52 0 0 0 0.443
754 5 0 0 1 53 0 0 0 0.351
755 5 0 0 1 54 0 1 0 0.455
756 5 0 0 1 55 1 0 1 0.522
757 5 0 0 1 56 0 1 0 0.972
758 5 0 0 1 57 0 1 0 0.485
759 5 0 0 1 58 0 0 0 0.456
760 5 0 0 1 59 0 0 0 0.507
761 5 0 0 1 60 1 1 1 0.413
762 5 0 0 1 61 1 0 1 0.635
763 5 0 0 1 62 1 0 1 0.52
764 5 0 0 1 63 1 0 1 0.586
765 5 0 0 1 64 0 0 0 0.385
766 5 0 0 1 65 1 1 1 0.543
767 5 0 0 1 66 0 0 0 0.48
768 5 0 0 1 67 1 1 1 0.355
769 5 0 0 1 68 1 0 1 0.562
770 5 0 0 1 69 1 0 1 0.394
771 5 0 0 1 70 1 1 1 0.456
772 5 0 0 1 71 0 0 0 0.561
773 5 0 0 1 72 0 0 0 0.617
774 5 0 0 1 73 0 1 0 0.583
775 5 0 0 1 74 0 0 0 0.455
776 5 0 0 1 75 1 1 1 0.427
777 5 0 0 1 76 0 1 0 0.591
778 5 0 0 1 77 1 1 1 0.43
779 5 0 0 1 78 1 0 1 0.563
780 5 0 0 1 79 1 0 1 0.554
781 5 0 0 1 80 1 1 1 0.307
782 5 0 0 1 81 0 1 0 0.476
783 5 0 0 1 82 1 1 1 0.503
784 5 0 0 1 83 0 1 0 0.545
785 5 0 0 1 84 1 0 1 0.409
786 5 0 0 1 85 0 0 0 0.47
787 5 0 0 1 86 1 0 1 0.65
788 5 0 0 1 87 0 0 0 0.607
789 5 0 0 1 88 1 0 1 0.469
790 5 0 0 1 89 0 0 0 0.376
791 5 0 0 1 90 0 0 0 0.543
792 5 0 0 1 91 1 0 1 0.415
793 5 0 0 1 92 1 1 1 0.484
794 5 0 0 1 93 0 0 0 0.383
795 5 0 0 1 94 0 1 0 0.486
796 5 0 0 1 95 0 1 0 0.584
797 5 0 0 1 96 0 1 0 0.664
798 5 0 0 1 97 1 1 1 0.404
799 5 0 0 1 98 0 0 0 0.578
800 5 0 0 1 99 1 1 1 0.569
801 5 0 2 0 0 0 1 1 6.734
802 5 0 2 0 1 1 1 0 5.568
803 5 0 2 0 2 1 1 1 1.276
804 5 0 2 0 3 1 0 1 1.657
805 5 0 2 0 4 0 0 0 1.065
806 5 0 2 0 5 0 1 0 2.191
807 5 0 2 0 6 0 1 0 3.365
808 5 0 2 0 7 0 1 0 1.925
809 5 0 2 0 8 0 1 0 0.764
810 5 0 2 0 9 1 0 1 0.981
811 5 0 2 0 10 1 1 1 0.942
812 5 0 2 0 11 1 0 1 0.752
813 5 0 2 0 12 1 1 1 0.785
814 5 0 2 0 13 1 0 1 1.745
815 5 0 2 0 14 0 0 0 0.967
816 5 0 2 0 15 0 0 0 0.977
817 5 0 2 0 16 1 0 1 1.154
818 5 0 2 0 17 0 1 0 1.084
819 5 0 2 0 18 0 0 0 0.929
820 5 0 2 0 19 0 0 0 0.876
821 5 0 2 0 20 1 1 1 0.793
822 5 0 2 0 21 0 1 0 2.112
823 5 0 2 0 22 1 0 1 0.849
824 5 0 2 0 23 1 1 1 0.931
825 5 0 2 0 24 1 1 1 0.71
826 5 0 2 0 25 1 0 1 0.624
827 5 0 2 0 26 0 1 0 0.654
828 5 0 2 0 27 1 1 1 1.082
829 5 0 2 0 28 1 0 1 0.744
830 5 0 2 0 29 1 1 1 1.073
831 5 0 2 0 30 0 1 0 0.735
832 5 0 2 0 31 1 1 1 0.855
833 5 0 2 0 32 1 1 1 0.816
834 5 0 2 0 33 0 1 0 0.639
835 5 0 2 0 34 1 1 1 0.684
836 5 0 2 0 35 1 0 1 0.688
837 5 0 2 0 36 0 1 0 0.763
838 5 0 2 0 37 1 1 1 0.764
839 5 0 2 0 38 1 0 1 2.477
840 5 0 2 0 39 0 0 0 0.607
841 5 0 2 0 40 0 1 0 1.245
842 5 0 2 0 41 0 0 0 0.749
843 5 0 2 0 42 0 0 0 0.87
844 5 0 2 0 43 1 0 1 0.595
845 5 0 2 0 44 0 0 0 1.473
846 5 0 2 0 45 1 0 1 0.769
847 5 0 2 0 46 0 0 0 0.993
848 5 0 2 0 47 0 1 0 0.754
849 5 0 2 0 48 0 1 0 0.803
850 5 0 2 0 49 0 1 0 0.627
851 5 0 2 1 50 0 0 0 0.917
852 5 0 2 1 51 0 0 0 0.488
853 5 0 2 1 52 1 1 1 0.643
854 5 0 2 1 53 1 1 1 0.84
855 5 0 2 1 54 0 1 0 0.63
856 5 0 2 1 55 1 1 1 0.651
857 5 0 2 1 56 1 1 1 0.664
858 5 0 2 1 57 0 1 0 0.564
859 5 0 2 1 58 1 1 1 0.596
860 5 0 2 1 59 1 0 1 0.563
861 5 0 2 1 60 1 1 1 0.459
862 5 0 2 1 61 1 0 1 0.574
863 5 0 2 1 62 1 1 1 0.501
864 5 0 2 1 63 0 0 0 0.64
865 5 0 2 1 64 0 1 0 0.715
866 5 0 2 1 65 1 1 1 0.542
867 5 0 2 1 66 0 0 0 0.462
868 5 0 2 1 67 0 0 0 0.65
869 5 0 2 1 68 1 1 1 0.543
870 5 0 2 1 69 0 1 1 0.503
871 5 0 2 1 70 1 0 0 0.993
872 5 0 2 1 71 0 0 0 0.897
873 5 0 2 1 72 1 0 1 0.661
874 5 0 2 1 73 1 0 1 0.689
875 5 0 2 1 74 0 0 0 0.875
876 5 0 2 1 75 1 1 1 0.704
877 5 0 2 1 76 0 0 0 0.571
878 5 0 2 1 77 1 0 1 0.715
879 5 0 2 1 78 0 0 0 0.702
880 5 0 2 1 79 0 1 0 0.769
881 5 0 2 1 80 1 0 1 2.857
882 5 0 2 1 81 0 0 0 2.223
883 5 0 2 1 82 0 0 0 1.348
884 5 0 2 1 83 1 0 1 0.76
885 5 0 2 1 84 1 0 1 2.784
886 5 0 2 1 85 1 1 1 1.777
887 5 0 2 1 86 0 1 1 1.149
888 5 0 2 1 87 0 0 0 4.031
889 5 0 2 1 88 0 0 0 1.131
890 5 0 2 1 89 1 0 0 0.95
891 5 0 2 1 90 0 1 0 6.463
892 5 0 2 1 91 1 0 1 1.012
893 5 0 2 1 92 0 1 0 1.147
894 5 0 2 1 93 1 0 1 0.67
895 5 0 2 1 94 0 0 0 0.546
896 5 0 2 1 95 0 1 0 0.739
897 5 0 2 1 96 1 0 1 0.765
898 5 0 2 1 97 0 0 0 0.613
899 5 0 2 1 98 1 1 1 0.587
900 5 0 2 1 99 0 1 0 0.683
901 5 1 2 0 0 1 1 1 2.918
902 5 1 2 0 1 1 1 1 0.834
903 5 1 2 0 2 0 1 1 3.192
904 5 1 2 0 3 0 0 0 1.018
905 5 1 2 0 4 1 1 1 0.698
906 5 1 2 0 5 0 0 0 0.581
907 5 1 2 0 6 1 1 1 0.46
908 5 1 2 0 7 1 0 0 0.44
909 5 1 2 0 8 0 1 0 0.828
910 5 1 2 0 9 0 1 1 1.146
911 5 1 2 0 10 1 0 0 0.477
912 5 1 2 0 11 0 1 1 0.791
913 5 1 2 0 12 1 1 1 0.47
914 5 1 2 0 13 0 1 1 0.706
915 5 1 2 0 14 1 1 1 0.46
916 5 1 2 0 15 0 1 1 0.424
917 5 1 2 0 16 0 1 1 0.604
918 5 1 2 0 17 0 1 1 0.538
919 5 1 2 0 18 0 0 0 0.467
920 5 1 2 0 19 1 0 0 0.799
921 5 1 2 0 20 0 0 0 0.582
922 5 1 2 0 21 1 1 1 0.422
923 5 1 2 0 22 1 0 0 0.363
924 5 1 2 0 23 0 0 0 0.658
925 5 1 2 0 24 0 0 0 0.422
926 5 1 2 0 25 0 0 0 0.443
927 5 1 2 0 26 1 1 1 0.575
928 5 1 2 0 27 1 1 1 0.774
929 5 1 2 0 28 1 0 0 0.668
930 5 1 2 0 29 1 1 1 0.816
931 5 1 2 0 30 0 0 0 0.479
932 5 1 2 0 31 0 0 0 0.578
933 5 1 2 0 32 1 0 0 0.825
934 5 1 2 0 33 1 0 0 0.439
935 5 1 2 0 34 0 0 0 0.571
936 5 1 2 0 35 0 0 0 0.443
937 5 1 2 0 36 1 0 0 0.495
938 5 1 2 0 37 1 0 0 0.385
939 5 1 2 0 38 1 0 0 0.287
940 5 1 2 0 39 1 1 1 0.617
941 5 1 2 0 40 1 1 1 0.503
942 5 1 2 0 41 0 1 1 0.466
943 5 1 2 0 42 1 1 1 0.405
944 5 1 2 0 43 1 1 1 0.402
945 5 1 2 0 44 1 1 1 0.336
946 5 1 2 0 45 1 0 0 0.416
947 5 1 2 0 46 0 1 1 0.574
948 5 1 2 0 47 0 1 1 0.717
949 5 1 2 0 48 0 1 1 1
950 5 1 2 0 49 1 1 1 0.376
951 5 1 2 1 50 0 0 0 1.228
952 5 1 2 1 51 0 1 1 0.54
953 5 1 2 1 52 1 1 1 0.588
954 5 1 2 1 53 0 0 0 0.483
955 5 1 2 1 54 0 1 1 0.67
956 5 1 2 1 55 0 0 0 0.506
957 5 1 2 1 56 0 1 1 0.739
958 5 1 2 1 57 1 0 0 0.413
959 5 1 2 1 58 0 1 1 0.385
960 5 1 2 1 59 1 1 1 0.648
961 5 1 2 1 60 1 0 0 0.413
962 5 1 2 1 61 1 0 0 0.522
963 5 1 2 1 62 0 0 0 0.355
964 5 1 2 1 63 0 1 1 0.411
965 5 1 2 1 64 1 1 1 0.415
966 5 1 2 1 65 1 0 0 0.404
967 5 1 2 1 66 0 1 1 0.674
968 5 1 2 1 67 0 0 0 0.501
969 5 1 2 1 68 0 0 0 0.92
970 5 1 2 1 69 1 0 0 0.405
971 5 1 2 1 70 1 1 1 0.426
972 5 1 2 1 71 1 1 1 0.455
973 5 1 2 1 72 0 1 1 0.555
974 5 1 2 1 73 0 1 1 0.515
975 5 1 2 1 74 1 0 0 0.452
976 5 1 2 1 75 0 0 0 0.448
977 5 1 2 1 76 0 1 0 0.396
978 5 1 2 1 77 0 0 0 0.914
979 5 1 2 1 78 0 0 0 0.574
980 5 1 2 1 79 0 1 1 0.509
981 5 1 2 1 80 1 0 0 0.63
982 5 1 2 1 81 0 0 0 1.372
983 5 1 2 1 82 1 0 0 0.463
984 5 1 2 1 83 0 1 1 0.609
985 5 1 2 1 84 1 0 0 0.479
986 5 1 2 1 85 1 0 0 0.562
987 5 1 2 1 86 0 1 1 0.386
988 5 1 2 1 87 0 0 0 0.4
989 5 1 2 1 88 0 0 0 0.646
990 5 1 2 1 89 1 1 1 0.523
991 5 1 2 1 90 1 1 1 0.7
992 5 1 2 1 91 1 0 0 0.374
993 5 1 2 1 92 0 1 1 0.701
994 5 1 2 1 93 0 0 0 0.392
995 5 1 2 1 94 0 0 0 0.661
996 5 1 2 1 95 1 1 1 0.433
997 5 1 2 1 96 1 0 0 0.646
998 5 1 2 1 97 1 0 0 0.707
999 5 1 2 1 98 1 0 0 0.461
1000 5 1 2 1 99 1 1 1 0.377
1001 5 1 1 0 0 0 1 1 2.93
1002 5 1 1 0 1 0 1 1 0.917
1003 5 1 1 0 2 0 0 0 0.431
1004 5 1 1 0 3 0 0 0 0.532
1005 5 1 1 0 4 0 1 1 0.381
1006 5 1 1 0 5 1 0 1 0.531
1007 5 1 1 0 6 0 0 0 1.284
1008 5 1 1 0 7 1 1 1 0.362
1009 5 1 1 0 8 1 1 1 0.463
1010 5 1 1 0 9 1 1 1 0.411
1011 5 1 1 0 10 1 0 0 0.368
1012 5 1 1 0 11 1 1 1 0.559
1013 5 1 1 0 12 1 0 0 0.487
1014 5 1 1 0 13 1 1 1 0.281
1015 5 1 1 0 14 1 0 0 0.531
1016 5 1 1 0 15 0 0 0 0.548
1017 5 1 1 0 16 1 0 0 0.564
1018 5 1 1 0 17 0 1 1 0.396
1019 5 1 1 0 18 0 0 0 0.658
1020 5 1 1 0 19 1 0 0 0.406
1021 5 1 1 0 20 0 0 0 0.379
1022 5 1 1 0 21 1 1 1 0.338
1023 5 1 1 0 22 0 1 0 0.482
1024 5 1 1 0 23 1 0 0 2.189
1025 5 1 1 0 24 1 0 0 0.442
1026 5 1 1 0 25 0 0 0 0.462
1027 5 1 1 0 26 1 1 1 0.266
1028 5 1 1 0 27 0 0 0 0.3
1029 5 1 1 0 28 1 1 1 0.381
1030 5 1 1 0 29 0 1 1 0.46
1031 5 1 1 0 30 1 0 0 0.391
1032 5 1 1 0 31 0 0 1 0.477
1033 5 1 1 0 32 0 1 1 0.736
1034 5 1 1 0 33 1 1 1 0.338
1035 5 1 1 0 34 0 1 1 0.362
1036 5 1 1 0 35 1 1 1 0.313
1037 5 1 1 0 36 1 0 0 0.394
1038 5 1 1 0 37 1 0 0 0.464
1039 5 1 1 0 38 0 1 1 0.299
1040 5 1 1 0 39 0 1 1 0.804
1041 5 1 1 0 40 1 0 0 0.403
1042 5 1 1 0 41 0 1 1 0.361
1043 5 1 1 0 42 1 1 1 0.392
1044 5 1 1 0 43 0 0 0 0.406
1045 5 1 1 0 44 1 1 1 0.427
1046 5 1 1 0 45 0 0 0 0.432
1047 5 1 1 0 46 0 1 1 0.57
1048 5 1 1 0 47 0 1 1 0.41
1049 5 1 1 0 48 0 0 0 0.423
1050 5 1 1 0 49 0 1 1 0.396
1051 5 1 1 1 50 0 0 0 1.008
1052 5 1 1 1 51 1 1 1 0.312
1053 5 1 1 1 52 1 0 0 0.281
1054 5 1 1 1 53 0 0 1 0.291
1055 5 1 1 1 54 1 1 1 0.804
1056 5 1 1 1 55 1 0 0 0.276
1057 5 1 1 1 56 0 1 1 0.441
1058 5 1 1 1 57 0 1 1 0.589
1059 5 1 1 1 58 1 1 1 0.396
1060 5 1 1 1 59 1 0 0 0.474
1061 5 1 1 1 60 1 0 0 0.444
1062 5 1 1 1 61 1 1 1 0.353
1063 5 1 1 1 62 0 1 1 0.512
1064 5 1 1 1 63 1 0 0 0.426
1065 5 1 1 1 64 0 0 0 0.606
1066 5 1 1 1 65 0 1 1 0.284
1067 5 1 1 1 66 0 0 0 0.398
1068 5 1 1 1 67 0 0 0 0.388
1069 5 1 1 1 68 0 1 1 0.372
1070 5 1 1 1 69 0 1 1 0.627
1071 5 1 1 1 70 1 1 1 0.8
1072 5 1 1 1 71 1 1 1 0.48
1073 5 1 1 1 72 0 0 0 0.371
1074 5 1 1 1 73 0 1 1 0.458
1075 5 1 1 1 74 0 1 1 0.533
1076 5 1 1 1 75 1 0 0 0.51
1077 5 1 1 1 76 1 0 0 0.784
1078 5 1 1 1 77 1 1 1 0.488
1079 5 1 1 1 78 1 1 1 0.458
1080 5 1 1 1 79 0 0 0 0.557
1081 5 1 1 1 80 0 0 0 0.565
1082 5 1 1 1 81 0 1 1 0.315
1083 5 1 1 1 82 1 0 0 0.381
1084 5 1 1 1 83 1 0 0 0.695
1085 5 1 1 1 84 1 0 0 0.442
1086 5 1 1 1 85 1 1 1 0.446
1087 5 1 1 1 86 1 0 0 0.538
1088 5 1 1 1 87 0 0 0 0.522
1089 5 1 1 1 88 0 1 1 0.371
1090 5 1 1 1 89 1 0 0 0.594
1091 5 1 1 1 90 1 1 1 0.481
1092 5 1 1 1 91 1 1 1 0.452
1093 5 1 1 1 92 1 1 1 0.416
1094 5 1 1 1 93 0 0 0 0.413
1095 5 1 1 1 94 1 0 0 0.466
1096 5 1 1 1 95 0 0 0 0.502
1097 5 1 1 1 96 0 0 0 0.448
1098 5 1 1 1 97 1 1 1 0.468
1099 5 1 1 1 98 0 1 1 0.383
1100 5 1 1 1 99 0 0 0 0.414
1101 5 0 1 0 0 1 1 1 1.316
1102 5 0 1 0 1 0 0 0 0.497
1103 5 0 1 0 2 0 0 0 0.515
1104 5 0 1 0 3 0 0 0 0.437
1105 5 0 1 0 4 0 1 0 0.457
1106 5 0 1 0 5 1 1 1 0.509
1107 5 0 1 0 6 0 0 0 0.55
1108 5 0 1 0 7 0 0 0 0.559
1109 5 0 1 0 8 0 1 1 1.023
1110 5 0 1 0 9 0 1 0 1.246
1111 5 0 1 0 10 1 0 1 1.029
1112 5 0 1 0 11 0 0 0 0.386
1113 5 0 1 0 12 0 1 0 0.553
1114 5 0 1 0 13 0 1 0 0.457
1115 5 0 1 0 14 1 0 1 0.484
1116 5 0 1 0 15 1 1 1 0.511
1117 5 0 1 0 16 0 1 0 0.393
1118 5 0 1 0 17 0 0 0 0.414
1119 5 0 1 0 18 0 0 0 0.371
1120 5 0 1 0 19 1 0 1 0.521
1121 5 0 1 0 20 0 1 0 0.49
1122 5 0 1 0 21 0 0 0 0.38
1123 5 0 1 0 22 0 0 0 0.606
1124 5 0 1 0 23 0 1 1 0.733
1125 5 0 1 0 24 0 1 0 1.022
1126 5 0 1 0 25 1 0 1 0.709
1127 5 0 1 0 26 1 1 1 0.632
1128 5 0 1 0 27 0 1 0 0.413
1129 5 0 1 0 28 1 1 1 0.45
1130 5 0 1 0 29 0 0 0 0.694
1131 5 0 1 0 30 1 0 1 1.481
1132 5 0 1 0 31 0 1 0 0.704
1133 5 0 1 0 32 1 0 1 0.507
1134 5 0 1 0 33 1 0 1 0.725
1135 5 0 1 0 34 1 1 1 0.447
1136 5 0 1 0 35 1 1 1 0.459
1137 5 0 1 0 36 1 0 0 0.614
1138 5 0 1 0 37 1 1 1 0.732
1139 5 0 1 0 38 0 0 0 0.534
1140 5 0 1 0 39 0 1 0 0.527
1141 5 0 1 0 40 1 1 1 0.584
1142 5 0 1 0 41 1 1 1 0.439
1143 5 0 1 0 42 1 0 1 0.459
1144 5 0 1 0 43 0 1 0 0.431
1145 5 0 1 0 44 0 0 0 0.483
1146 5 0 1 0 45 0 0 0 0.433
1147 5 0 1 0 46 1 1 1 0.47
1148 5 0 1 0 47 0 0 0 0.545
1149 5 0 1 0 48 1 1 1 0.554
1150 5 0 1 0 49 1 1 1 0.482
1151 5 0 1 1 50 1 0 1 0.737
1152 5 0 1 1 51 0 1 0 0.539
1153 5 0 1 1 52 1 0 1 0.411
1154 5 0 1 1 53 1 1 1 0.489
1155 5 0 1 1 54 0 1 0 0.427
1156 5 0 1 1 55 0 0 0 0.399
1157 5 0 1 1 56 1 0 1 0.437
1158 5 0 1 1 57 0 1 0 0.585
1159 5 0 1 1 58 0 0 0 0.464
1160 5 0 1 1 59 1 1 1 0.403
1161 5 0 1 1 60 0 0 0 0.449
1162 5 0 1 1 61 1 1 1 0.458
1163 5 0 1 1 62 1 0 1 0.494
1164 5 0 1 1 63 0 1 0 0.487
1165 5 0 1 1 64 1 1 1 0.521
1166 5 0 1 1 65 1 0 1 1.002
1167 5 0 1 1 66 1 0 1 0.482
1168 5 0 1 1 67 0 0 0 0.461
1169 5 0 1 1 68 1 0 1 0.457
1170 5 0 1 1 69 0 0 0 0.42
1171 5 0 1 1 70 1 0 1 0.465
1172 5 0 1 1 71 0 1 0 0.685
1173 5 0 1 1 72 0 0 0 0.468
1174 5 0 1 1 73 1 0 1 0.448
1175 5 0 1 1 74 0 1 0 1.092
1176 5 0 1 1 75 1 0 1 0.376
1177 5 0 1 1 76 1 1 1 0.527
1178 5 0 1 1 77 1 0 1 0.44
1179 5 0 1 1 78 1 1 1 0.484
1180 5 0 1 1 79 0 1 0 0.455
1181 5 0 1 1 80 0 0 0 0.579
1182 5 0 1 1 81 1 1 1 0.362
1183 5 0 1 1 82 1 0 1 0.617
1184 5 0 1 1 83 0 1 0 0.407
1185 5 0 1 1 84 1 1 1 0.484
1186 5 0 1 1 85 0 0 0 0.487
1187 5 0 1 1 86 1 1 1 0.666
1188 5 0 1 1 87 1 0 1 0.729
1189 5 0 1 1 88 0 1 0 0.347
1190 5 0 1 1 89 1 0 1 0.603
1191 5 0 1 1 90 0 1 0 0.594
1192 5 0 1 1 91 0 1 0 0.528
1193 5 0 1 1 92 1 1 1 0.433
1194 5 0 1 1 93 1 1 1 0.39
1195 5 0 1 1 94 1 0 1 0.396
1196 5 0 1 1 95 0 0 0 0.386
1197 5 0 1 1 96 1 1 1 0.664
1198 5 0 1 1 97 0 1 0 0.988
1199 5 0 1 1 98 1 0 1 0.421
1200 5 0 1 1 99 0 0 0 0.746
1201 7 0 2 0 0 1 1 1 9.924
1202 7 0 2 0 1 1 0 1 6.684
1203 7 0 2 0 2 0 0 0 2.535
1204 7 0 2 0 3 1 0 1 3.04
1205 7 0 2 0 4 1 0 1 4.727
1206 7 0 2 0 5 1 0 1 1.989
1207 7 0 2 0 6 1 0 1 2.225
1208 7 0 2 0 7 0 1 0 4.766
1209 7 0 2 0 8 1 0 1 0.974
1210 7 0 2 0 9 0 0 0 1.823
1211 7 0 2 0 10 1 0 1 6.906
1212 7 0 2 0 11 1 0 1 2.59
1213 7 0 2 0 12 0 1 0 2.03
1214 7 0 2 0 13 1 1 1 2.809
1215 7 0 2 0 14 0 0 0 0.952
1216 7 0 2 0 15 1 1 1 1.778
1217 7 0 2 0 16 0 1 0 1.142
1218 7 0 2 0 17 0 0 0 1.376
1219 7 0 2 0 18 0 0 0 1.043
1220 7 0 2 0 19 0 0 0 0.913
1221 7 0 2 0 20 0 1 0 3.357
1222 7 0 2 0 21 1 0 1 2.353
1223 7 0 2 0 22 1 0 1 2.633
1224 7 0 2 0 23 1 1 1 2.35
1225 7 0 2 0 24 1 0 1 1.334
1226 7 0 2 0 25 1 1 1 1.985
1227 7 0 2 0 26 0 1 0 1.142
1228 7 0 2 0 27 1 0 1 1.273
1229 7 0 2 0 28 0 1 0 4.711
1230 7 0 2 0 29 0 1 0 1.392
1231 7 0 2 0 30 1 0 1 1.138
1232 7 0 2 0 31 1 0 1 1.053
1233 7 0 2 0 32 1 1 1 0.788
1234 7 0 2 0 33 0 1 0 0.828
1235 7 0 2 0 34 1 0 1 0.826
1236 7 0 2 0 35 1 0 1 0.728
1237 7 0 2 0 36 1 0 1 1.114
1238 7 0 2 0 37 1 0 1 3.264
1239 7 0 2 0 38 1 0 1 1.045
1240 7 0 2 0 39 0 0 0 2.099
1241 7 0 2 0 40 1 1 1 4.548
1242 7 0 2 0 41 1 1 1 0.756
1243 7 0 2 0 42 0 0 0 0.829
1244 7 0 2 0 43 0 1 0 1.836
1245 7 0 2 0 44 0 0 0 1.118
1246 7 0 2 0 45 1 1 1 2.249
1247 7 0 2 0 46 0 1 0 4.485
1248 7 0 2 0 47 1 0 1 1.104
1249 7 0 2 0 48 0 0 0 1.332
1250 7 0 2 0 49 0 1 0 1.833
1251 7 0 2 1 50 1 1 1 5.041
1253 8 0 0 0 0 1 0 1 2.877
1254 8 0 0 0 1 0 0 0 3.625
1255 8 0 0 0 2 1 1 1 0.483
1256 8 0 0 0 3 0 1 0 0.662
1257 8 0 0 0 4 1 0 1 1.97
1258 8 0 0 0 5 0 0 0 0.558
1259 8 0 0 0 6 0 1 0 0.653
1260 8 0 0 0 7 1 0 1 0.834
1261 8 0 0 0 8 1 0 1 0.711
1262 8 0 0 0 9 1 0 1 0.522
1263 8 0 0 0 10 1 1 1 0.675
1264 8 0 0 0 11 1 0 1 0.487
1265 8 0 0 0 12 0 0 0 0.418
1266 8 0 0 0 13 0 0 0 0.423
1267 8 0 0 0 14 0 1 0 0.66
1268 8 0 0 0 15 1 1 1 0.551
1269 8 0 0 0 16 0 1 0 0.552
1270 8 0 0 0 17 1 0 1 0.576
1271 8 0 0 0 18 0 0 0 0.559
1272 8 0 0 0 19 0 1 0 0.486
1273 8 0 0 0 20 0 1 0 0.665
1274 8 0 0 0 21 0 0 0 0.557
1275 8 0 0 0 22 1 1 1 0.661
1276 8 0 0 0 23 1 0 1 0.617
1277 8 0 0 0 24 0 1 0 0.606
1278 8 0 0 0 25 1 1 1 0.628
1279 8 0 0 0 26 0 0 0 0.554
1280 8 0 0 0 27 1 0 1 0.482
1281 8 0 0 0 28 1 1 1 0.693
1282 8 0 0 0 29 0 0 0 0.672
1283 8 0 0 0 30 0 1 0 0.627
1284 8 0 0 0 31 0 1 0 0.497
1285 8 0 0 0 32 1 0 1 0.547
1286 8 0 0 0 33 1 0 1 0.459
1287 8 0 0 0 34 1 1 1 0.487
1288 8 0 0 0 35 1 0 1 0.449
1289 8 0 0 0 36 1 1 1 0.453
1290 8 0 0 0 37 1 0 1 2.089
1291 8 0 0 0 38 0 0 0 0.442
1292 8 0 0 0 39 0 0 0 0.486
1293 8 0 0 0 40 0 1 0 0.48
1294 8 0 0 0 41 0 0 0 0.435
1295 8 0 0 0 42 0 0 0 0.447
1296 8 0 0 0 43 0 1 0 0.475
1297 8 0 0 0 44 1 0 1 0.526
1298 8 0 0 0 45 1 1 1 0.519
1299 8 0 0 0 46 1 1 1 0.92
1300 8 0 0 0 47 0 0 0 0.627
1301 8 0 0 0 48 0 0 0 1.009
1302 8 0 0 0 49 0 0 0 1.872
1303 8 0 0 1 50 1 1 1 1.51
1304 8 0 0 1 51 0 1 0 0.588
1305 8 0 0 1 52 0 1 0 0.587
1306 8 0 0 1 53 0 0 0 0.634
1307 8 0 0 1 54 1 0 1 0.663
1308 8 0 0 1 55 1 1 1 0.619
1309 8 0 0 1 56 0 0 0 0.657
1310 8 0 0 1 57 0 1 0 0.637
1311 8 0 0 1 58 1 1 1 0.65
1312 8 0 0 1 59 1 0 1 0.599
1313 8 0 0 1 60 1 0 1 0.677
1314 8 0 0 1 61 0 0 0 0.489
1315 8 0 0 1 62 0 1 0 0.571
1316 8 0 0 1 63 0 1 0 0.547
1317 8 0 0 1 64 1 1 1 0.483
1318 8 0 0 1 65 0 1 0 0.541
1319 8 0 0 1 66 1 1 1 0.485
1320 8 0 0 1 67 0 1 0 0.744
1321 8 0 0 1 68 0 0 0 0.769
1322 8 0 0 1 69 1 0 1 0.689
1323 8 0 0 1 70 1 0 1 0.66
1324 8 0 0 1 71 1 0 1 0.785
1325 8 0 0 1 72 1 1 1 0.608
1326 8 0 0 1 73 0 0 0 0.734
1327 8 0 0 1 74 1 1 1 0.668
1328 8 0 0 1 75 0 1 0 1.145
1329 8 0 0 1 76 0 1 0 0.708
1330 8 0 0 1 77 0 1 0 0.646
1331 8 0 0 1 78 1 0 1 0.651
1332 8 0 0 1 79 0 0 0 0.655
1333 8 0 0 1 80 0 0 0 0.676
1334 8 0 0 1 81 0 0 0 0.671
1335 8 0 0 1 82 0 1 0 0.739
1336 8 0 0 1 83 1 1 1 0.9
1337 8 0 0 1 84 0 0 0 0.816
1338 8 0 0 1 85 1 1 1 0.639
1339 8 0 0 1 86 1 1 1 0.588
1340 8 0 0 1 87 1 0 1 0.667
1341 8 0 0 1 88 1 1 1 0.607
1342 8 0 0 1 89 1 1 1 0.525
1343 8 0 0 1 90 1 1 1 0.622
1344 8 0 0 1 91 1 1 1 0.62
1345 8 0 0 1 92 1 1 1 0.65
1346 8 0 0 1 93 1 0 1 0.623
1347 8 0 0 1 94 1 0 1 1.476
1348 8 0 0 1 95 1 0 1 0.555
1349 8 0 0 1 96 0 1 0 0.579
1350 8 0 0 1 97 0 0 0 0.538
1351 8 0 0 1 98 0 1 0 0.602
1352 8 0 0 1 99 0 1 0 0.649
1353 8 1 0 0 0 0 0 0 3.541
1354 8 1 0 0 1 1 0 0 1.57
1355 8 1 0 0 2 1 0 0 1.565
1356 8 1 0 0 3 1 1 1 0.721
1357 8 1 0 0 4 1 0 1 0.531
1358 8 1 0 0 5 1 0 1 3.684
1359 8 1 0 0 6 1 0 0 1.244
1360 8 1 0 0 7 0 1 1 1.579
1361 8 1 0 0 8 0 0 0 0.926
1362 8 1 0 0 9 1 0 0 1.873
1363 8 1 0 0 10 0 1 1 1.202
1364 8 1 0 0 11 0 1 1 0.915
1365 8 1 0 0 12 0 1 1 0.702
1366 8 1 0 0 13 1 0 0 0.721
1367 8 1 0 0 14 1 1 1 0.563
1368 8 1 0 0 15 1 1 1 0.419
1369 8 1 0 0 16 0 1 1 0.4
1370 8 1 0 0 17 1 1 1 0.318
1371 8 1 0 0 18 0 0 0 0.367
1372 8 1 0 0 19 1 1 1 0.974
1373 8 1 0 0 20 1 0 0 0.471
1374 8 1 0 0 21 1 1 1 0.386
1375 8 1 0 0 22 1 0 0 0.336
1376 8 1 0 0 23 1 1 1 0.376
1377 8 1 0 0 24 1 1 1 0.399
1378 8 1 0 0 25 1 1 1 0.324
1379 8 1 0 0 26 0 1 1 0.301
1380 8 1 0 0 27 0 1 1 0.446
1381 8 1 0 0 28 0 1 1 0.562
1382 8 1 0 0 29 0 0 0 0.426
1383 8 1 0 0 30 1 1 1 0.359
1384 8 1 0 0 31 1 0 0 0.446
1385 8 1 0 0 32 0 0 0 0.49
1386 8 1 0 0 33 1 0 0 0.38
1387 8 1 0 0 34 1 1 1 0.434
1388 8 1 0 0 35 0 1 1 0.742
1389 8 1 0 0 36 1 0 0 0.584
1390 8 1 0 0 37 1 0 0 0.559
1391 8 1 0 0 38 0 1 1 0.51
1392 8 1 0 0 39 1 1 1 0.744
1393 8 1 0 0 40 1 1 1 0.505
1394 8 1 0 0 41 0 0 0 0.483
1395 8 1 0 0 42 0 0 0 0.542
1396 8 1 0 0 43 0 0 0 0.426
1397 8 1 0 0 44 0 0 0 0.631
1398 8 1 0 0 45 0 1 1 0.468
1399 8 1 0 0 46 0 1 1 0.463
1400 8 1 0 0 47 0 0 0 0.867
1401 8 1 0 0 48 0 0 0 0.551
1402 8 1 0 0 49 0 0 0 0.68
1403 8 1 0 1 50 0 1 1 2.067
1404 8 1 0 1 51 0 1 1 0.749
1405 8 1 0 1 52 0 1 1 0.67
1406 8 1 0 1 53 1 1 1 0.706
1407 8 1 0 1 54 0 0 0 0.444
1408 8 1 0 1 55 0 1 1 0.296
1409 8 1 0 1 56 1 1 1 0.321
1410 8 1 0 1 57 0 0 0 0.274
1411 8 1 0 1 58 0 0 0 0.444
1412 8 1 0 1 59 1 0 0 0.44
1413 8 1 0 1 60 0 0 0 0.324
1414 8 1 0 1 61 0 0 0 0.396
1415 8 1 0 1 62 1 0 0 0.714
1416 8 1 0 1 63 1 1 1 0.516
1417 8 1 0 1 64 1 0 0 0.326
1418 8 1 0 1 65 0 1 1 0.398
1419 8 1 0 1 66 1 0 0 0.419
1420 8 1 0 1 67 1 1 1 0.298
1421 8 1 0 1 68 0 1 1 0.419
1422 8 1 0 1 69 1 0 0 0.398
1423 8 1 0 1 70 0 0 0 0.451
1424 8 1 0 1 71 0 1 1 0.391
1425 8 1 0 1 72 1 1 1 0.581
1426 8 1 0 1 73 1 0 0 0.516
1427 8 1 0 1 74 1 1 1 0.501
1428 8 1 0 1 75 0 1 1 0.456
1429 8 1 0 1 76 0 1 1 0.531
1430 8 1 0 1 77 1 1 1 0.46
1431 8 1 0 1 78 0 0 0 0.6
1432 8 1 0 1 79 1 1 1 0.51
1433 8 1 0 1 80 1 1 1 0.408
1434 8 1 0 1 81 1 0 0 0.475
1435 8 1 0 1 82 1 0 0 0.494
1436 8 1 0 1 83 1 0 0 0.28
1437 8 1 0 1 84 0 0 0 0.489
1438 8 1 0 1 85 0 0 0 0.436
1439 8 1 0 1 86 0 0 0 0.432
1440 8 1 0 1 87 0 0 0 0.466
1441 8 1 0 1 88 1 0 0 1.062
1442 8 1 0 1 89 1 1 1 0.409
1443 8 1 0 1 90 0 1 1 0.408
1444 8 1 0 1 91 0 0 0 0.438
1445 8 1 0 1 92 1 1 1 0.578
1446 8 1 0 1 93 1 1 1 1.009
1447 8 1 0 1 94 1 0 0 0.681
1448 8 1 0 1 95 1 0 0 0.668
1449 8 1 0 1 96 0 0 0 0.432
1450 8 1 0 1 97 0 1 1 0.381
1451 8 1 0 1 98 0 1 1 0.339
1452 8 1 0 1 99 0 1 1 0.331
1453 8 1 1 0 0 1 0 0 8.016
1454 8 1 1 0 1 0 0 0 2.093
1455 8 1 1 0 2 1 0 0 1.279
1456 8 1 1 0 3 1 1 1 1.373
1457 8 1 1 0 4 0 0 0 1.696
1458 8 1 1 0 5 0 0 0 0.43
1459 8 1 1 0 6 1 1 1 0.386
1460 8 1 1 0 7 1 1 1 0.569
1461 8 1 1 0 8 1 1 1 0.425
1462 8 1 1 0 9 1 1 1 0.301
1463 8 1 1 0 10 0 1 1 1.534
1464 8 1 1 0 11 1 0 0 0.855
1465 8 1 1 0 12 1 1 1 0.436
1466 8 1 1 0 13 1 0 0 1.137
1467 8 1 1 0 14 0 0 0 0.572
1468 8 1 1 0 15 0 1 1 0.435
1469 8 1 1 0 16 0 0 0 0.6
1470 8 1 1 0 17 0 1 1 0.399
1471 8 1 1 0 18 1 0 0 0.412
1472 8 1 1 0 19 1 0 0 0.473
1473 8 1 1 0 20 0 1 1 0.628
1474 8 1 1 0 21 1 0 0 0.593
1475 8 1 1 0 22 0 1 1 0.792
1476 8 1 1 0 23 1 0 0 0.463
1477 8 1 1 0 24 1 1 1 0.474
1478 8 1 1 0 25 1 1 1 0.589
1479 8 1 1 0 26 0 0 0 0.563
1480 8 1 1 0 27 1 1 1 0.611
1481 8 1 1 0 28 0 1 1 0.81
1482 8 1 1 0 29 0 0 0 0.51
1483 8 1 1 0 30 1 0 0 0.679
1484 8 1 1 0 31 0 0 0 0.792
1485 8 1 1 0 32 1 1 1 0.545
1486 8 1 1 0 33 1 0 0 0.569
1487 8 1 1 0 34 0 0 0 0.553
1488 8 1 1 0 35 1 1 1 0.553
1489 8 1 1 0 36 0 1 1 0.85
1490 8 1 1 0 37 0 1 1 0.624
1491 8 1 1 0 38 1 1 1 0.485
1492 8 1 1 0 39 0 1 1 0.576
1493 8 1 1 0 40 0 1 1 0.623
1494 8 1 1 0 41 0 1 1 0.557
1495 8 1 1 0 42 0 0 0 0.413
1496 8 1 1 0 43 0 0 0 0.354
1497 8 1 1 0 44 0 0 0 0.306
1498 8 1 1 0 45 1 0 1 0.626
1499 8 1 1 0 46 1 1 1 0.96
1500 8 1 1 0 47 0 1 1 1.177
1501 8 1 1 0 48 1 0 0 0.555
1502 8 1 1 0 49 1 1 1 0.572
1503 8 1 1 1 50 0 1 1 2.277
1504 8 1 1 1 51 0 1 1 1.671
1505 8 1 1 1 52 0 0 0 1.151
1506 8 1 1 1 53 0 0 0 0.562
1507 8 1 1 1 54 1 0 0 1.034
1508 8 1 1 1 55 0 1 1 0.776
1509 8 1 1 1 56 0 0 0 0.529
1510 8 1 1 1 57 0 0 0 0.538
1511 8 1 1 1 58 1 1 1 0.698
1512 8 1 1 1 59 1 0 0 1.085
1513 8 1 1 1 60 1 1 1 0.634
1514 8 1 1 1 61 1 1 1 0.592
1515 8 1 1 1 62 1 1 1 0.542
1516 8 1 1 1 63 0 0 0 0.719
1517 8 1 1 1 64 1 1 1 0.561
1518 8 1 1 1 65 0 0 0 0.824
1519 8 1 1 1 66 0 1 1 0.663
1520 8 1 1 1 67 0 1 1 0.899
1521 8 1 1 1 68 0 0 0 0.695
1522 8 1 1 1 69 1 1 1 0.594
1523 8 1 1 1 70 1 0 0 0.865
1524 8 1 1 1 71 1 0 0 1.086
1525 8 1 1 1 72 1 1 1 0.779
1526 8 1 1 1 73 1 1 1 3.859
1527 8 1 1 1 74 1 0 0 0.701
1528 8 1 1 1 75 1 0 0 0.616
1529 8 1 1 1 76 0 0 0 0.67
1530 8 1 1 1 77 1 1 1 0.706
1531 8 1 1 1 78 0 0 0 0.733
1532 8 1 1 1 79 1 0 0 0.998
1533 8 1 1 1 80 0 1 1 1.655
1534 8 1 1 1 81 0 1 1 0.712
1535 8 1 1 1 82 0 1 1 0.442
1536 8 1 1 1 83 1 0 0 0.646
1537 8 1 1 1 84 1 1 1 0.715
1538 8 1 1 1 85 0 0 0 0.542
1539 8 1 1 1 86 0 1 1 0.678
1540 8 1 1 1 87 0 1 1 0.362
1541 8 1 1 1 88 0 0 0 0.441
1542 8 1 1 1 89 1 1 1 0.365
1543 8 1 1 1 90 0 1 1 0.748
1544 8 1 1 1 91 1 0 0 0.637
1545 8 1 1 1 92 0 0 0 0.458
1546 8 1 1 1 93 0 0 0 0.693
1547 8 1 1 1 94 0 1 1 0.76
1548 8 1 1 1 95 1 0 0 0.673
1549 8 1 1 1 96 1 0 0 0.453
1550 8 1 1 1 97 1 0 0 0.464
1551 8 1 1 1 98 0 1 1 0.419
1552 8 1 1 1 99 1 0 0 0.408
1553 8 1 2 0 0 0 1 1 6.251
1555 12 0 0 0 0 1 1 1 0.908
1556 12 0 0 0 1 0 1 0 0.736
1557 12 0 0 0 2 0 0 0 0.595
1558 12 0 0 0 3 0 0 0 0.705
1559 12 0 0 0 4 1 0 1 0.683
1560 12 0 0 0 5 0 0 0 0.583
1561 12 0 0 0 6 0 1 0 0.742
1562 12 0 0 0 7 0 1 0 0.591
1563 12 0 0 0 8 0 0 0 0.59
1564 12 0 0 0 9 0 1 0 0.589
1565 12 0 0 0 10 0 0 0 0.443
1566 12 0 0 0 11 1 0 1 0.608
1567 12 0 0 0 12 1 1 1 0.446
1568 12 0 0 0 13 0 1 0 0.562
1569 12 0 0 0 14 1 0 1 0.705
1570 12 0 0 0 15 0 1 0 0.748
1571 12 0 0 0 16 0 0 0 1.173
1572 12 0 0 0 17 0 1 0 0.607
1573 12 0 0 0 18 1 0 1 0.653
1574 12 0 0 0 19 0 0 0 0.586
1575 12 0 0 0 20 0 1 0 0.986
1576 12 0 0 0 21 0 0 0 0.698
1577 12 0 0 0 22 1 0 1 0.598
1578 12 0 0 0 23 0 0 0 0.9
1579 12 0 0 0 24 1 0 1 0.568
1580 12 0 0 0 25 1 0 1 0.631
1581 12 0 0 0 26 0 0 0 0.629
1582 12 0 0 0 27 0 0 0 0.642
1583 12 0 0 0 28 1 0 1 0.639
1584 12 0 0 0 29 0 1 0 0.524
1585 12 0 0 0 30 0 1 0 0.701
1586 12 0 0 0 31 1 1 1 0.712
1587 12 0 0 0 32 1 0 1 0.595
1588 12 0 0 0 33 1 1 1 0.562
1589 12 0 0 0 34 1 1 1 0.417
1590 12 0 0 0 35 1 0 0 0.503
1591 12 0 0 0 36 0 0 0 0.728
1592 12 0 0 0 37 0 0 0 0.562
1593 12 0 0 0 38 0 0 0 0.642
1594 12 0 0 0 39 1 1 1 0.559
1595 12 0 0 0 40 1 1 1 0.527
1596 12 0 0 0 41 0 1 0 0.608
1597 12 0 0 0 42 1 1 1 0.59
1598 12 0 0 0 43 0 0 0 0.669
1599 12 0 0 0 44 1 1 1 0.585
1600 12 0 0 0 45 1 1 1 0.536
1601 12 0 0 0 46 0 0 0 0.553
1602 12 0 0 0 47 1 1 1 0.553
1603 12 0 0 0 48 1 1 1 0.442
1604 12 0 0 0 49 1 1 1 0.477
1605 12 0 0 1 50 1 1 1 1.847
1606 12 0 0 1 51 0 0 0 0.681
1607 12 0 0 1 52 1 0 1 1.028
1608 12 0 0 1 53 1 0 1 0.612
1609 12 0 0 1 54 0 1 0 0.626
1610 12 0 0 1 55 1 1 1 0.399
1611 12 0 0 1 56 1 1 1 0.437
1612 12 0 0 1 57 1 0 1 0.409
1613 12 0 0 1 58 1 0 1 0.398
1614 12 0 0 1 59 1 0 1 0.548
1615 12 0 0 1 60 1 0 1 0.48
1616 12 0 0 1 61 0 1 0 0.483
1617 12 0 0 1 62 0 1 0 0.501
1618 12 0 0 1 63 1 1 1 0.472
1619 12 0 0 1 64 0 1 0 0.612
1620 12 0 0 1 65 0 0 0 0.562
1621 12 0 0 1 66 1 1 1 0.434
1622 12 0 0 1 67 0 1 1 1.143
1623 12 0 0 1 68 0 0 0 1.073
1624 12 0 0 1 69 0 0 0 0.383
1625 12 0 0 1 70 0 0 0 0.549
1626 12 0 0 1 71 1 1 1 0.422
1627 12 0 0 1 72 0 0 0 0.731
1628 12 0 0 1 73 0 1 0 0.421
1629 12 0 0 1 74 0 1 0 0.521
1630 12 0 0 1 75 1 0 1 0.539
1631 12 0 0 1 76 1 0 1 0.617
1632 12 0 0 1 77 0 0 0 0.615
1633 12 0 0 1 78 0 1 0 0.521
1634 12 0 0 1 79 1 1 1 0.634
1635 12 0 0 1 80 0 1 0 1.288
1636 12 0 0 1 81 1 0 1 1.294
1637 12 0 0 1 82 1 1 1 0.515
1638 12 0 0 1 83 1 1 1 0.741
1639 12 0 0 1 84 0 1 0 0.622
1640 12 0 0 1 85 1 0 1 0.492
1641 12 0 0 1 86 1 1 1 0.75
1642 12 0 0 1 87 0 0 0 0.551
1643 12 0 0 1 88 1 0 1 0.664
1644 12 0 0 1 89 0 1 0 0.516
1645 12 0 0 1 90 1 1 1 0.39
1646 12 0 0 1 91 1 0 1 0.588
1647 12 0 0 1 92 1 0 1 0.506
1648 12 0 0 1 93 0 1 0 0.588
1649 12 0 0 1 94 1 0 1 0.587
1650 12 0 0 1 95 0 0 0 0.587
1651 12 0 0 1 96 0 1 0 0.554
1652 12 0 0 1 97 1 0 1 0.714
1653 12 0 0 1 98 0 1 0 0.538
1654 12 0 0 1 99 1 1 1 0.635
1655 12 0 1 0 0 0 1 0 1.837
1656 12 0 1 0 1 1 1 1 0.815
1657 12 0 1 0 2 1 1 1 0.438
1658 12 0 1 0 3 0 1 0 0.474
1659 12 0 1 0 4 0 0 0 0.413
1660 12 0 1 0 5 1 0 1 1.138
1661 12 0 1 0 6 0 1 0 0.893
1662 12 0 1 0 7 0 1 0 0.545
1663 12 0 1 0 8 0 1 0 0.45
1664 12 0 1 0 9 1 1 1 0.438
1665 12 0 1 0 10 1 1 1 0.506
1666 12 0 1 0 11 1 1 1 0.557
1667 12 0 1 0 12 0 0 0 0.605
1668 12 0 1 0 13 0 0 0 0.379
1669 12 0 1 0 14 0 1 1 0.561
1670 12 0 1 0 15 1 1 1 0.993
1671 12 0 1 0 16 1 1 1 0.616
1672 12 0 1 0 17 0 0 0 0.534
1673 12 0 1 0 18 0 1 0 0.791
1674 12 0 1 0 19 0 0 0 0.543
1675 12 0 1 0 20 1 0 1 0.511
1676 12 0 1 0 21 1 0 1 0.577
1677 12 0 1 0 22 0 0 0 0.512
1678 12 0 1 0 23 0 0 0 0.37
1679 12 0 1 0 24 1 0 1 0.601
1680 12 0 1 0 25 0 0 0 0.472
1681 12 0 1 0 26 1 1 1 0.506
1682 12 0 1 0 27 0 1 0 0.813
1683 12 0 1 0 28 0 1 0 0.692
1684 12 0 1 0 29 1 1 1 0.975
1685 12 0 1 0 30 0 1 0 0.496
1686 12 0 1 0 31 1 0 1 0.546
1687 12 0 1 0 32 1 1 1 0.802
1688 12 0 1 0 33 0 0 0 0.842
1689 12 0 1 0 34 0 0 0 0.448
1690 12 0 1 0 35 1 0 1 0.484
1691 12 0 1 0 36 0 0 0 0.519
1692 12 0 1 0 37 1 1 1 0.632
1693 12 0 1 0 38 0 1 0 0.582
1694 12 0 1 0 39 0 0 0 0.501
1695 12 0 1 0 40 1 0 1 0.487
1696 12 0 1 0 41 0 0 0 0.49
1697 12 0 1 0 42 0 1 0 0.444
1698 12 0 1 0 43 1 1 1 0.496
1699 12 0 1 0 44 1 1 1 0.434
1700 12 0 1 0 45 0 0 0 0.443
1701 12 0 1 0 46 0 0 0 0.415
1702 12 0 1 0 47 1 0 1 0.405
1703 12 0 1 0 48 1 0 1 0.458
1704 12 0 1 0 49 1 0 1 0.574
1705 12 0 1 1 50 1 1 1 0.952
1706 12 0 1 1 51 1 1 1 0.378
1707 12 0 1 1 52 1 1 1 0.401
1708 12 0 1 1 53 0 0 0 0.342
1709 12 0 1 1 54 0 0 0 0.494
1710 12 0 1 1 55 1 0 0 0.704
1711 12 0 1 1 56 1 1 1 0.507
1712 12 0 1 1 57 0 1 0 0.649
1713 12 0 1 1 58 0 1 0 0.404
1714 12 0 1 1 59 0 0 0 0.586
1715 12 0 1 1 60 0 0 0 0.585
1716 12 0 1 1 61 1 0 1 0.536
1717 12 0 1 1 62 1 1 1 0.457
1718 12 0 1 1 63 1 0 1 0.844
1719 12 0 1 1 64 1 1 1 0.69
1720 12 0 1 1 65 1 0 1 0.877
1721 12 0 1 1 66 1 0 1 0.642
1722 12 0 1 1 67 0 1 0 0.606
1723 12 0 1 1 68 0 1 0 0.429
1724 12 0 1 1 69 1 0 1 0.481
1725 12 0 1 1 70 0 1 0 0.627
1726 12 0 1 1 71 1 0 1 0.497
1727 12 0 1 1 72 1 1 1 0.595
1728 12 0 1 1 73 1 1 1 0.546
1729 12 0 1 1 74 0 0 0 0.61
1730 12 0 1 1 75 0 0 0 0.448
1731 12 0 1 1 76 1 0 1 0.548
1732 12 0 1 1 77 0 0 0 0.565
1733 12 0 1 1 78 1 0 1 0.533
1734 12 0 1 1 79 0 0 0 0.982
1735 12 0 1 1 80 0 1 0 0.615
1736 12 0 1 1 81 1 0 1 0.533
1737 12 0 1 1 82 0 1 0 0.629
1738 12 0 1 1 83 0 1 0 0.579
1739 12 0 1 1 84 0 0 0 0.754
1740 12 0 1 1 85 1 0 1 0.507
1741 12 0 1 1 86 0 1 0 0.657
1742 12 0 1 1 87 1 1 1 0.669
1743 12 0 1 1 88 0 1 0 0.602
1744 12 0 1 1 89 1 1 1 0.376
1745 12 0 1 1 90 1 0 1 0.831
1746 12 0 1 1 91 1 0 1 0.629
1747 12 0 1 1 92 1 0 1 0.531
1748 12 0 1 1 93 0 1 0 0.516
1749 12 0 1 1 94 1 1 1 0.453
1750 12 0 1 1 95 0 0 0 0.569
1751 12 0 1 1 96 1 0 1 0.601
1752 12 0 1 1 97 1 1 1 0.567
1753 12 0 1 1 98 0 1 0 0.46
1754 12 0 1 1 99 0 1 0 0.457
1755 12 1 2 0 0 1 0 0 3.445
1756 12 1 2 0 1 0 0 0 3.022
1757 12 1 2 0 2 1 0 0 5.206
1758 12 1 2 0 3 1 1 1 1.903
1759 12 1 2 0 4 1 0 0 0.751
1760 12 1 2 0 5 1 1 1 0.424
1761 12 1 2 0 6 1 0 0 0.365
1762 12 1 2 0 7 1 1 1 0.516
1763 12 1 2 0 8 0 1 1 4.085
1764 12 1 2 0 9 0 0 0 1.079
1765 12 1 2 0 10 0 0 0 0.581
1766 12 1 2 0 11 1 1 1 0.74
1767 12 1 2 0 12 1 1 1 0.701
1768 12 1 2 0 13 1 0 0 0.648
1769 12 1 2 0 14 0 1 1 2.965
1770 12 1 2 0 15 0 1 1 0.863
1771 12 1 2 0 16 1 1 1 0.42
1772 12 1 2 0 17 0 1 1 0.505
1773 12 1 2 0 18 0 1 1 0.54
1774 12 1 2 0 19 1 1 1 0.556
1775 12 1 2 0 20 0 0 0 1.068
1776 12 1 2 0 21 1 0 0 0.442
1777 12 1 2 0 22 1 0 0 0.494
1778 12 1 2 0 23 1 1 1 0.56
1779 12 1 2 0 24 1 0 0 0.64
1780 12 1 2 0 25 1 0 0 0.541
1781 12 1 2 0 26 0 1 1 0.525
1782 12 1 2 0 27 0 0 0 0.558
1783 12 1 2 0 28 1 0 0 0.526
1784 12 1 2 0 29 0 0 0 0.479
1785 12 1 2 0 30 1 1 1 0.498
1786 12 1 2 0 31 1 0 1 0.628
1787 12 1 2 0 32 1 1 1 0.721
1788 12 1 2 0 33 1 0 0 0.652
1789 12 1 2 0 34 0 0 0 0.569
1790 12 1 2 0 35 0 0 0 0.569
1791 12 1 2 0 36 0 1 1 0.6
1792 12 1 2 0 37 1 1 1 0.647
1793 12 1 2 0 38 0 0 0 0.612
1794 12 1 2 0 39 0 1 1 0.578
1795 12 1 2 0 40 1 0 0 0.593
1796 12 1 2 0 41 0 1 1 0.592
1797 12 1 2 0 42 0 1 1 0.575
1798 12 1 2 0 43 0 1 1 0.59
1799 12 1 2 0 44 0 0 0 0.845
1800 12 1 2 0 45 0 0 0 0.562
1801 12 1 2 0 46 0 1 1 0.562
1802 12 1 2 0 47 0 0 0 0.786
1803 12 1 2 0 48 0 0 0 0.506
1804 12 1 2 0 49 1 1 1 0.507
1805 12 1 2 1 50 1 1 1 1.393
1806 12 1 2 1 51 1 0 0 0.514
1807 12 1 2 1 52 0 0 0 0.548
1808 12 1 2 1 53 0 0 0 0.468
1809 12 1 2 1 54 1 1 1 0.328
1810 12 1 2 1 55 1 0 0 0.432
1811 12 1 2 1 56 1 1 1 0.389
1812 12 1 2 1 57 1 1 1 0.49
1813 12 1 2 1 58 1 0 0 0.397
1814 12 1 2 1 59 0 0 0 0.402
1815 12 1 2 1 60 1 1 1 0.424
1816 12 1 2 1 61 0 0 0 0.541
1817 12 1 2 1 62 1 0 0 0.413
1818 12 1 2 1 63 1 0 0 0.402
1819 12 1 2 1 64 0 1 1 0.408
1820 12 1 2 1 65 0 1 1 0.366
1821 12 1 2 1 66 1 0 0 0.389
1822 12 1 2 1 67 0 0 0 0.474
1823 12 1 2 1 68 1 0 0 0.557
1824 12 1 2 1 69 0 0 0 0.509
1825 12 1 2 1 70 1 0 0 0.415
1826 12 1 2 1 71 0 1 1 0.548
1827 12 1 2 1 72 0 0 0 0.772
1828 12 1 2 1 73 0 0 0 0.507
1829 12 1 2 1 74 0 1 1 0.492
1830 12 1 2 1 75 0 0 0 0.575
1831 12 1 2 1 76 0 1 1 0.446
1832 12 1 2 1 77 0 1 1 0.498
1833 12 1 2 1 78 1 1 1 0.564
1834 12 1 2 1 79 0 1 1 0.42
1835 12 1 2 1 80 1 1 1 0.393
1836 12 1 2 1 81 0 0 0 1.039
1837 12 1 2 1 82 0 1 1 0.558
1838 12 1 2 1 83 1 0 0 0.413
1839 12 1 2 1 84 1 0 0 0.467
1840 12 1 2 1 85 0 0 0 0.566
1841 12 1 2 1 86 1 1 1 0.438
1842 12 1 2 1 87 0 1 1 0.474
1843 12 1 2 1 88 1 0 0 0.509
1844 12 1 2 1 89 1 1 1 0.606
1845 12 1 2 1 90 1 1 1 0.477
1846 12 1 2 1 91 0 1 1 0.511
1847 12 1 2 1 92 0 1 1 0.513
1848 12 1 2 1 93 1 1 1 0.403
1849 12 1 2 1 94 1 1 1 0.377
1850 12 1 2 1 95 1 0 0 0.463
1851 12 1 2 1 96 1 1 1 0.722
1852 12 1 2 1 97 0 0 0 0.78
1853 12 1 2 1 98 0 1 1 0.468
1854 12 1 2 1 99 0 1 1 0.44
1855 12 1 0 0 0 1 0 0 1.602
1856 12 1 0 0 1 1 0 0 0.476
1857 12 1 0 0 2 0 0 0 0.751
1858 12 1 0 0 3 1 0 0 0.614
1859 12 1 0 0 4 0 1 1 0.404
1860 12 1 0 0 5 1 1 1 0.297
1861 12 1 0 0 6 0 0 0 0.403
1862 12 1 0 0 7 1 0 0 0.361
1863 12 1 0 0 8 0 0 0 0.432
1864 12 1 0 0 9 0 1 1 0.356
1865 12 1 0 0 10 1 1 1 0.539
1866 12 1 0 0 11 0 1 1 0.409
1867 12 1 0 0 12 0 1 1 0.366
1868 12 1 0 0 13 1 1 1 0.597
1869 12 1 0 0 14 0 0 0 0.468
1870 12 1 0 0 15 0 0 0 0.423
1871 12 1 0 0 16 1 1 1 0.828
1872 12 1 0 0 17 0 1 1 0.402
1873 12 1 0 0 18 0 1 1 0.52
1874 12 1 0 0 19 0 0 0 0.52
1875 12 1 0 0 20 1 1 1 0.442
1876 12 1 0 0 21 1 0 0 0.51
1877 12 1 0 0 22 0 1 1 0.336
1878 12 1 0 0 23 1 0 0 0.44
1879 12 1 0 0 24 1 1 1 0.46
1880 12 1 0 0 25 1 0 0 0.303
1881 12 1 0 0 26 1 1 1 0.361
1882 12 1 0 0 27 1 1 1 0.464
1883 12 1 0 0 28 1 1 1 0.403
1884 12 1 0 0 29 0 0 0 0.425
1885 12 1 0 0 30 1 1 1 0.429
1886 12 1 0 0 31 0 1 1 0.498
1887 12 1 0 0 32 1 1 1 0.404
1888 12 1 0 0 33 1 1 1 0.458
1889 12 1 0 0 34 0 1 1 0.461
1890 12 1 0 0 35 1 0 0 0.529
1891 12 1 0 0 36 1 1 1 0.402
1892 12 1 0 0 37 1 0 0 0.6
1893 12 1 0 0 38 0 1 1 0.391
1894 12 1 0 0 39 0 1 1 0.364
1895 12 1 0 0 40 1 0 0 0.483
1896 12 1 0 0 41 1 1 1 0.39
1897 12 1 0 0 42 0 0 0 0.492
1898 12 1 0 0 43 1 1 1 0.35
1899 12 1 0 0 44 1 0 0 0.55
1900 12 1 0 0 45 1 0 0 0.758
1901 12 1 0 0 46 0 0 0 0.751
1902 12 1 0 0 47 0 1 1 0.408
1903 12 1 0 0 48 0 1 1 0.286
1904 12 1 0 0 49 0 1 1 0.327
1905 12 1 0 1 50 1 0 0 1.275
1906 12 1 0 1 51 0 0 0 0.385
1907 12 1 0 1 52 1 0 0 0.36
1908 12 1 0 1 53 0 0 0 0.367
1909 12 1 0 1 54 0 0 0 0.358
1910 12 1 0 1 55 1 0 0 0.445
1911 12 1 0 1 56 0 1 1 0.433
1912 12 1 0 1 57 1 1 1 0.309
1913 12 1 0 1 58 1 0 0 0.382
1914 12 1 0 1 59 1 0 0 0.404
1915 12 1 0 1 60 0 1 1 0.394
1916 12 1 0 1 61 0 1 1 0.335
1917 12 1 0 1 62 1 1 1 0.312
1918 12 1 0 1 63 0 0 0 0.482
1919 12 1 0 1 64 1 0 0 0.453
1920 12 1 0 1 65 1 0 0 0.457
1921 12 1 0 1 66 1 1 1 0.412
1922 12 1 0 1 67 0 0 0 0.45
1923 12 1 0 1 68 0 0 0 0.454
1924 12 1 0 1 69 0 1 1 0.52
1925 12 1 0 1 70 0 0 0 0.554
1926 12 1 0 1 71 0 0 0 0.346
1927 12 1 0 1 72 1 1 1 0.449
1928 12 1 0 1 73 1 0 0 0.598
1929 12 1 0 1 74 1 0 0 0.436
1930 12 1 0 1 75 0 1 1 0.425
1931 12 1 0 1 76 0 1 1 0.381
1932 12 1 0 1 77 1 0 0 0.692
1933 12 1 0 1 78 1 0 0 0.543
1934 12 1 0 1 79 1 1 1 0.351
1935 12 1 0 1 80 0 0 0 0.391
1936 12 1 0 1 81 0 0 0 0.397
1937 12 1 0 1 82 0 1 1 0.403
1938 12 1 0 1 83 0 0 0 0.44
1939 12 1 0 1 84 0 1 1 0.636
1940 12 1 0 1 85 0 0 0 0.393
1941 12 1 0 1 86 1 1 1 0.399
1942 12 1 0 1 87 0 1 0 0.429
1943 12 1 0 1 88 1 0 0 0.433
1944 12 1 0 1 89 0 1 1 0.469
1945 12 1 0 1 90 1 1 1 0.473
1946 12 1 0 1 91 0 1 1 0.443
1947 12 1 0 1 92 0 0 0 0.447
1948 12 1 0 1 93 0 0 0 0.435
1949 12 1 0 1 94 1 1 1 0.375
1950 12 1 0 1 95 1 1 1 0.366
1951 12 1 0 1 96 1 1 1 0.405
1952 12 1 0 1 97 1 0 0 0.442
1953 12 1 0 1 98 0 0 0 0.542
1954 12 1 0 1 99 0 0 0 0.318
1955 12 1 1 0 0 0 0 0 1.537
1956 12 1 1 0 1 1 1 1 0.413
1957 12 1 1 0 2 0 1 1 0.403
1958 12 1 1 0 3 1 0 0 0.407
1959 12 1 1 0 4 0 1 1 0.3
1960 12 1 1 0 5 1 1 1 0.325
1961 12 1 1 0 6 0 0 0 0.333
1962 12 1 1 0 7 0 1 1 0.325
1963 12 1 1 0 8 1 1 1 0.429
1964 12 1 1 0 9 0 1 1 0.274
1965 12 1 1 0 10 1 1 1 0.332
1966 12 1 1 0 11 1 0 0 0.276
1967 12 1 1 0 12 0 1 1 0.398
1968 12 1 1 0 13 1 0 0 0.339
1969 12 1 1 0 14 1 1 1 0.331
1970 12 1 1 0 15 0 0 0 0.387
1971 12 1 1 0 16 1 1 1 0.378
1972 12 1 1 0 17 0 1 1 0.688
1973 12 1 1 0 18 1 0 0 0.555
1974 12 1 1 0 19 0 1 1 0.411
1975 12 1 1 0 20 1 1 1 0.368
1976 12 1 1 0 21 1 0 0 0.327
1977 12 1 1 0 22 0 0 0 0.48
1978 12 1 1 0 23 0 0 0 0.403
1979 12 1 1 0 24 1 0 0 0.398
1980 12 1 1 0 25 1 1 1 0.45
1981 12 1 1 0 26 0 0 0 0.421
1982 12 1 1 0 27 0 0 0 0.314
1983 12 1 1 0 28 1 0 0 0.406
1984 12 1 1 0 29 0 0 0 0.443
1985 12 1 1 0 30 1 0 0 0.463
1986 12 1 1 0 31 0 0 0 0.419
1987 12 1 1 0 32 1 1 1 0.408
1988 12 1 1 0 33 1 1 1 0.349
1989 12 1 1 0 34 0 0 0 0.437
1990 12 1 1 0 35 0 1 1 0.489
1991 12 1 1 0 36 0 1 1 0.412
1992 12 1 1 0 37 0 1 1 0.353
1993 12 1 1 0 38 1 0 0 0.392
1994 12 1 1 0 39 1 0 0 0.286
1995 12 1 1 0 40 0 0 0 0.248
1996 12 1 1 0 41 1 1 1 0.307
1997 12 1 1 0 42 0 0 0 0.397
1998 12 1 1 0 43 0 0 0 0.274
1999 12 1 1 0 44 1 0 0 0.396
2000 12 1 1 0 45 1 1 1 0.258
2001 12 1 1 0 46 1 0 0 0.477
2002 12 1 1 0 47 1 1 1 0.656
2003 12 1 1 0 48 0 0 0 0.444
2004 12 1 1 0 49 0 0 0 0.368
2005 12 1 1 1 50 1 1 1 2.13
2006 12 1 1 1 51 0 1 1 0.585
2007 12 1 1 1 52 1 0 0 0.36
2008 12 1 1 1 53 1 1 1 0.479
2009 12 1 1 1 54 1 1 1 0.354
2010 12 1 1 1 55 0 0 0 0.346
2011 12 1 1 1 56 0 0 0 0.289
2012 12 1 1 1 57 1 1 1 0.331
2013 12 1 1 1 58 1 0 0 0.371
2014 12 1 1 1 59 1 1 1 0.634
2015 12 1 1 1 60 0 1 1 0.392
2016 12 1 1 1 61 0 1 1 0.366
2017 12 1 1 1 62 0 0 0 0.469
2018 12 1 1 1 63 1 1 1 0.343
2019 12 1 1 1 64 1 1 1 0.351
2020 12 1 1 1 65 1 1 1 0.31
2021 12 1 1 1 66 0 1 1 0.367
2022 12 1 1 1 67 0 0 0 0.411
2023 12 1 1 1 68 1 0 0 0.368
2024 12 1 1 1 69 1 1 1 0.375
2025 12 1 1 1 70 1 0 0 0.397
2026 12 1 1 1 71 0 1 1 0.371
2027 12 1 1 1 72 1 0 0 0.554
2028 12 1 1 1 73 1 0 0 0.554
2029 12 1 1 1 74 1 0 0 0.363
2030 12 1 1 1 75 1 1 1 0.577
2031 12 1 1 1 76 0 1 1 0.385
2032 12 1 1 1 77 0 1 1 0.391
2033 12 1 1 1 78 1 0 0 0.445
2034 12 1 1 1 79 0 1 1 0.513
2035 12 1 1 1 80 1 1 1 0.434
2036 12 1 1 1 81 0 1 1 0.439
2037 12 1 1 1 82 0 1 1 0.411
2038 12 1 1 1 83 0 0 0 0.32
2039 12 1 1 1 84 0 0 0 0.297
2040 12 1 1 1 85 0 0 0 0.274
2041 12 1 1 1 86 1 1 1 0.413
2042 12 1 1 1 87 1 0 0 0.37
2043 12 1 1 1 88 1 0 0 0.313
2044 12 1 1 1 89 0 0 0 0.434
2045 12 1 1 1 90 0 0 0 0.391
2046 12 1 1 1 91 1 0 0 0.621
2047 12 1 1 1 92 0 1 1 0.459
2048 12 1 1 1 93 0 1 1 0.158
2049 12 1 1 1 94 0 1 1 0.381
2050 12 1 1 1 95 0 1 1 0.307
2051 12 1 1 1 96 0 1 1 0.588
2052 12 1 1 1 97 0 0 0 0.347
2053 12 1 1 1 98 1 0 0 0.419
2054 12 1 1 1 99 1 0 0 0.408
2055 12 0 2 0 0 1 0 1 2.332
2056 12 0 2 0 1 1 0 1 0.828
2057 12 0 2 0 2 0 1 0 0.803
2058 12 0 2 0 3 0 1 0 0.666
2059 12 0 2 0 4 0 0 0 1.334
2060 12 0 2 0 5 0 0 0 2.106
2061 12 0 2 0 6 0 1 0 2.019
2062 12 0 2 0 7 0 0 0 0.601
2063 12 0 2 0 8 1 1 1 0.616
2064 12 0 2 0 9 0 1 0 1.238
2065 12 0 2 0 10 1 1 1 0.862
2066 12 0 2 0 11 1 1 1 0.675
2067 12 0 2 0 12 0 1 0 1.646
2068 12 0 2 0 13 1 0 1 0.631
2069 12 0 2 0 14 1 0 1 0.693
2070 12 0 2 0 15 0 1 0 1.456
2071 12 0 2 0 16 0 1 0 0.639
2072 12 0 2 0 17 0 1 0 0.764
2073 12 0 2 0 18 1 1 1 0.661
2074 12 0 2 0 19 1 1 1 0.481
2075 12 0 2 0 20 0 0 0 0.58
2076 12 0 2 0 21 0 1 0 0.627
2077 12 0 2 0 22 1 0 1 0.657
2078 12 0 2 0 23 0 0 0 0.669
2079 12 0 2 0 24 1 0 1 0.713
2080 12 0 2 0 25 1 1 1 0.467
2081 12 0 2 0 26 0 1 0 0.679
2082 12 0 2 0 27 1 1 1 0.627
2083 12 0 2 0 28 0 1 0 1.296
2084 12 0 2 0 29 0 1 0 0.502
2085 12 0 2 0 30 1 0 1 0.552
2086 12 0 2 0 31 1 0 1 0.488
2087 12 0 2 0 32 0 0 0 0.523
2088 12 0 2 0 33 1 0 1 0.508
2089 12 0 2 0 34 0 1 0 0.622
2090 12 0 2 0 35 0 0 0 0.54
2091 12 0 2 0 36 1 1 1 0.637
2092 12 0 2 0 37 1 0 1 0.57
2093 12 0 2 0 38 1 0 1 0.457
2094 12 0 2 0 39 1 0 1 0.541
2095 12 0 2 0 40 1 1 1 0.621
2096 12 0 2 0 41 0 0 0 0.539
2097 12 0 2 0 42 0 1 0 0.619
2098 12 0 2 0 43 1 1 1 0.569
2099 12 0 2 0 44 1 0 1 0.52
2100 12 0 2 0 45 1 1 1 0.49
2101 12 0 2 0 46 0 0 0 0.572
2102 12 0 2 0 47 0 0 0 0.476
2103 12 0 2 0 48 0 0 0 0.734
2104 12 0 2 0 49 0 0 0 0.616
2105 12 0 2 1 50 0 1 0 0.868
2106 12 0 2 1 51 0 1 0 0.585
2107 12 0 2 1 52 1 1 1 0.52
2108 12 0 2 1 53 0 0 0 0.473
2109 12 0 2 1 54 1 0 1 0.572
2110 12 0 2 1 55 1 1 1 0.619
2111 12 0 2 1 56 0 1 0 0.473
2112 12 0 2 1 57 1 1 1 1.228
2113 12 0 2 1 58 1 0 1 0.708
2114 12 0 2 1 59 1 1 1 0.751
2115 12 0 2 1 60 0 0 0 0.392
2116 12 0 2 1 61 1 0 1 0.782
2117 12 0 2 1 62 1 1 1 0.678
2118 12 0 2 1 63 0 1 0 0.593
2119 12 0 2 1 64 1 0 1 0.433
2120 12 0 2 1 65 0 1 0 0.598
2121 12 0 2 1 66 0 0 0 0.676
2122 12 0 2 1 67 0 1 0 0.544
2123 12 0 2 1 68 0 0 0 0.529
2124 12 0 2 1 69 1 1 1 0.722
2125 12 0 2 1 70 0 1 0 0.652
2126 12 0 2 1 71 1 1 1 0.632
2127 12 0 2 1 72 0 0 0 0.534
2128 12 0 2 1 73 1 0 1 1.223
2129 12 0 2 1 74 1 1 1 0.463
2130 12 0 2 1 75 0 0 0 0.594
2131 12 0 2 1 76 1 0 1 0.849
2132 12 0 2 1 77 0 1 0 0.726
2133 12 0 2 1 78 1 1 1 0.848
2134 12 0 2 1 79 1 1 1 0.582
2135 12 0 2 1 80 1 1 1 0.581
2136 12 0 2 1 81 1 1 1 0.724
2137 12 0 2 1 82 1 0 1 1.614
2138 12 0 2 1 83 0 0 0 0.52
2139 12 0 2 1 84 1 0 1 0.586
2140 12 0 2 1 85 0 0 0 0.601
2141 12 0 2 1 86 0 0 0 0.616
2142 12 0 2 1 87 1 0 1 0.693
2143 12 0 2 1 88 1 0 1 0.414
2144 12 0 2 1 89 1 1 1 0.611
2145 12 0 2 1 90 1 1 1 0.561
2146 12 0 2 1 91 0 0 0 0.673
2147 12 0 2 1 92 0 0 0 0.605
2148 12 0 2 1 93 1 0 1 0.875
2149 12 0 2 1 94 0 1 0 0.704
2150 12 0 2 1 95 0 1 0 0.827
2151 12 0 2 1 96 0 1 0 0.625
2152 12 0 2 1 97 1 0 1 0.543
2153 12 0 2 1 98 0 0 0 0.511
2154 12 0 2 1 99 0 0 0 0.545
2155 13 0 2 0 0 1 1 1 9.638
2156 13 0 2 0 1 1 0 1 4.081
2157 13 0 2 0 2 0 1 0 9.283
2158 13 0 2 0 3 1 0 1 1.05
2159 13 0 2 0 4 0 1 0 1.271
2160 13 0 2 0 5 0 0 0 0.765
2161 13 0 2 0 6 1 1 1 0.598
2162 13 0 2 0 7 1 1 1 0.756
2163 13 0 2 0 8 0 1 0 1.053
2164 13 0 2 0 9 0 0 0 1.007
2165 13 0 2 0 10 0 0 0 1.007
2166 13 0 2 0 11 1 1 1 0.735
2167 13 0 2 0 12 1 0 1 0.553
2168 13 0 2 0 13 0 1 0 0.873
2169 13 0 2 0 14 1 1 1 0.603
2170 13 0 2 0 15 1 1 1 0.633
2171 13 0 2 0 16 1 1 1 0.71
2172 13 0 2 0 17 1 0 1 1.201
2173 13 0 2 0 18 0 1 0 0.906
2174 13 0 2 0 19 0 0 0 0.781
2175 13 0 2 0 20 1 1 1 0.612
2176 13 0 2 0 21 0 0 0 0.547
2177 13 0 2 0 22 1 1 1 0.521
2178 13 0 2 0 23 1 0 0 0.515
2179 13 0 2 0 24 0 0 0 0.533
2180 13 0 2 0 25 0 0 0 0.534
2181 13 0 2 0 26 0 1 0 0.743
2182 13 0 2 0 27 1 0 1 0.512
2183 13 0 2 0 28 0 0 0 0.545
2184 13 0 2 0 29 0 0 0 0.626
2185 13 0 2 0 30 0 1 0 0.623
2186 13 0 2 0 31 0 0 0 0.541
2187 13 0 2 0 32 1 1 1 0.557
2188 13 0 2 0 33 0 1 0 0.989
2189 13 0 2 0 34 1 0 1 0.493
2190 13 0 2 0 35 1 0 1 0.495
2191 13 0 2 0 36 1 0 1 0.578
2192 13 0 2 0 37 1 0 1 0.529
2193 13 0 2 0 38 1 0 1 0.434
2194 13 0 2 0 39 0 0 0 0.534
2195 13 0 2 0 40 0 0 0 0.503
2196 13 0 2 0 41 0 1 0 0.553
2197 13 0 2 0 42 1 0 1 0.569
2198 13 0 2 0 43 0 1 0 0.681
2199 13 0 2 0 44 1 1 1 0.516
2200 13 0 2 0 45 1 1 1 0.534
2201 13 0 2 0 46 0 1 0 0.743
2202 13 0 2 0 47 0 0 0 0.657
2203 13 0 2 0 48 0 1 0 1.117
2204 13 0 2 0 49 1 0 1 0.776
2205 13 0 2 1 50 0 1 0 1.383
2206 13 0 2 1 51 1 1 1 0.583
2207 13 0 2 1 52 0 1 0 0.742
2208 13 0 2 1 53 0 1 0 0.783
2209 13 0 2 1 54 1 0 1 0.583
2210 13 0 2 1 55 1 0 1 0.711
2211 13 0 2 1 56 1 1 1 1.089
2212 13 0 2 1 57 1 0 1 0.542
2213 13 0 2 1 58 0 0 0 0.655
2214 13 0 2 1 59 1 1 1 1.147
2215 13 0 2 1 60 1 0 1 0.662
2216 13 0 2 1 61 1 1 1 0.578
2217 13 0 2 1 62 0 1 0 0.625
2218 13 0 2 1 63 0 1 0 0.623
2219 13 0 2 1 64 1 1 1 0.62
2220 13 0 2 1 65 1 0 1 0.858
2221 13 0 2 1 66 0 0 0 0.703
2222 13 0 2 1 67 0 1 0 1.114
2223 13 0 2 1 68 1 1 1 0.774
2224 13 0 2 1 69 1 1 1 0.446
2225 13 0 2 1 70 0 0 0 0.498
2226 13 0 2 1 71 1 1 1 0.5
2227 13 0 2 1 72 0 1 0 0.599
2228 13 0 2 1 73 1 0 1 0.549
2229 13 0 2 1 74 1 0 1 0.79
2230 13 0 2 1 75 1 0 1 0.605
2231 13 0 2 1 76 0 0 0 0.507
2232 13 0 2 1 77 0 1 0 0.957
2233 13 0 2 1 78 1 0 1 0.734
2234 13 0 2 1 79 0 0 0 0.568
2235 13 0 2 1 80 1 1 1 0.503
2236 13 0 2 1 81 0 0 0 0.682
2237 13 0 2 1 82 1 1 1 1.174
2238 13 0 2 1 83 1 1 1 1.599
2239 13 0 2 1 84 0 0 0 0.49
2240 13 0 2 1 85 1 1 1 0.636
2241 13 0 2 1 86 0 0 0 0.473
2242 13 0 2 1 87 1 0 1 0.636
2243 13 0 2 1 88 1 0 1 0.394
2244 13 0 2 1 89 0 1 1 0.432
2245 13 0 2 1 90 0 1 0 1.012
2246 13 0 2 1 91 0 0 0 0.564
2247 13 0 2 1 92 0 1 0 0.756
2248 13 0 2 1 93 0 1 0 0.589
2249 13 0 2 1 94 0 0 0 0.619
2250 13 0 2 1 95 0 0 0 0.888
2251 13 0 2 1 96 1 1 1 0.684
2252 13 0 2 1 97 0 0 0 0.503
2253 13 0 2 1 98 1 0 1 0.489
2254 13 0 2 1 99 0 1 0 1.852
2255 13 1 0 0 0 0 1 1 3.462
2256 13 1 0 0 1 1 0 0 3.23
2257 13 1 0 0 2 1 1 1 0.638
2258 13 1 0 0 3 0 0 0 0.507
2259 13 1 0 0 4 1 1 1 0.381
2260 13 1 0 0 5 0 0 0 0.371
2261 13 1 0 0 6 1 0 0 0.442
2262 13 1 0 0 7 1 0 0 0.558
2263 13 1 0 0 8 1 1 1 0.558
2264 13 1 0 0 9 0 0 0 0.525
2265 13 1 0 0 10 1 1 1 0.367
2266 13 1 0 0 11 1 0 1 0.438
2267 13 1 0 0 12 0 0 0 0.506
2268 13 1 0 0 13 0 1 1 0.411
2269 13 1 0 0 14 0 0 0 0.432
2270 13 1 0 0 15 0 0 0 0.469
2271 13 1 0 0 16 0 1 1 0.664
2272 13 1 0 0 17 1 1 1 0.548
2273 13 1 0 0 18 0 0 0 0.565
2274 13 1 0 0 19 0 1 1 0.452
2275 13 1 0 0 20 0 0 0 0.52
2276 13 1 0 0 21 1 1 1 0.906
2277 13 1 0 0 22 0 1 1 0.573
2278 13 1 0 0 23 1 1 1 0.461
2279 13 1 0 0 24 1 0 1 0.496
2280 13 1 0 0 25 1 1 1 0.61
2281 13 1 0 0 26 0 1 1 0.528
2282 13 1 0 0 27 0 1 1 0.417
2283 13 1 0 0 28 0 1 1 0.487
2284 13 1 0 0 29 0 1 1 0.361
2285 13 1 0 0 30 0 0 0 0.649
2286 13 1 0 0 31 1 0 0 0.438
2287 13 1 0 0 32 0 0 0 0.394
2288 13 1 0 0 33 1 1 1 0.624
2289 13 1 0 0 34 1 0 0 0.701
2290 13 1 0 0 35 0 1 1 0.505
2291 13 1 0 0 36 1 1 1 0.635
2292 13 1 0 0 37 1 1 1 0.415
2293 13 1 0 0 38 0 0 0 0.517
2294 13 1 0 0 39 1 1 1 0.502
2295 13 1 0 0 40 1 0 0 0.44
2296 13 1 0 0 41 0 0 0 0.652
2297 13 1 0 0 42 1 0 0 0.665
2298 13 1 0 0 43 1 1 1 0.693
2299 13 1 0 0 44 1 1 1 0.496
2300 13 1 0 0 45 0 1 1 0.498
2301 13 1 0 0 46 0 1 1 0.533
2302 13 1 0 0 47 1 0 0 0.774
2303 13 1 0 0 48 1 0 0 0.734
2304 13 1 0 0 49 0 0 0 0.696
2305 13 1 0 1 50 1 1 1 0.941
2306 13 1 0 1 51 1 0 0 0.544
2307 13 1 0 1 52 1 0 0 0.559
2308 13 1 0 1 53 1 1 1 0.495
2309 13 1 0 1 54 1 1 1 0.482
2310 13 1 0 1 55 1 1 1 0.516
2311 13 1 0 1 56 1 1 1 0.47
2312 13 1 0 1 57 1 1 1 0.393
2313 13 1 0 1 58 0 0 0 0.479
2314 13 1 0 1 59 0 1 1 0.418
2315 13 1 0 1 60 1 0 0 0.487
2316 13 1 0 1 61 1 0 1 0.49
2317 13 1 0 1 62 0 1 1 0.54
2318 13 1 0 1 63 0 1 1 0.396
2319 13 1 0 1 64 0 1 1 0.482
2320 13 1 0 1 65 0 0 0 0.469
2321 13 1 0 1 66 1 0 0 0.456
2322 13 1 0 1 67 0 1 1 0.507
2323 13 1 0 1 68 1 0 0 0.397
2324 13 1 0 1 69 0 1 1 0.402
2325 13 1 0 1 70 1 0 0 0.536
2326 13 1 0 1 71 0 0 0 0.409
2327 13 1 0 1 72 0 1 1 0.51
2328 13 1 0 1 73 1 1 1 0.48
2329 13 1 0 1 74 0 1 1 0.53
2330 13 1 0 1 75 0 0 0 0.483
2331 13 1 0 1 76 1 0 0 0.502
2332 13 1 0 1 77 1 1 1 0.537
2333 13 1 0 1 78 0 0 0 0.714
2334 13 1 0 1 79 1 1 1 0.483
2335 13 1 0 1 80 0 0 0 0.47
2336 13 1 0 1 81 1 0 0 0.441
2337 13 1 0 1 82 0 1 1 0.557
2338 13 1 0 1 83 0 0 0 0.429
2339 13 1 0 1 84 1 0 0 0.562
2340 13 1 0 1 85 1 0 0 0.53
2341 13 1 0 1 86 0 0 0 0.451
2342 13 1 0 1 87 0 0 0 0.455
2343 13 1 0 1 88 0 0 0 0.458
2344 13 1 0 1 89 0 0 0 0.541
2345 13 1 0 1 90 0 0 0 0.638
2346 13 1 0 1 91 1 0 0 0.459
2347 13 1 0 1 92 0 1 1 0.574
2348 13 1 0 1 93 1 0 0 1.022
2349 13 1 0 1 94 0 1 1 0.621
2350 13 1 0 1 95 1 1 1 0.746
2351 13 1 0 1 96 1 0 0 0.564
2352 13 1 0 1 97 1 1 1 0.467
2353 13 1 0 1 98 0 1 1 0.375
2354 13 1 0 1 99 0 1 0 0.397
2355 14 0 1 0 0 1 0 1 6.191
2356 14 0 1 0 1 1 0 1 4.421
2357 14 0 1 0 2 1 0 1 0.843
2358 14 0 1 0 3 1 1 1 0.649
2359 14 0 1 0 4 0 1 0 0.781
2360 14 0 1 0 5 1 1 1 0.622
2361 14 0 1 0 6 1 0 1 0.635
2362 14 0 1 0 7 0 0 0 0.672
2363 13 0 0 0 0 1 0 1 2.759
2364 14 0 1 0 8 0 0 0 0.556
2365 13 0 0 0 1 1 1 1 0.584
2366 14 0 1 0 9 1 0 1 0.827
2367 13 0 0 0 2 0 0 0 0.551
2368 14 0 1 0 10 0 0 0 0.666
2369 13 0 0 0 3 1 1 1 0.477
2370 14 0 1 0 11 0 0 0 0.566
2371 13 0 0 0 4 0 0 0 0.474
2372 14 0 1 0 12 1 1 1 0.646
2373 13 0 0 0 5 0 0 0 0.461
2374 14 0 1 0 13 0 0 0 0.635
2375 13 0 0 0 6 0 1 0 0.688
2376 14 0 1 0 14 1 0 1 0.536
2377 13 0 0 0 7 0 0 0 0.443
2378 14 0 1 0 15 1 1 1 0.313
2379 13 0 0 0 8 0 0 0 0.607
2380 14 0 1 0 16 1 1 1 0.314
2381 13 0 0 0 9 1 0 1 0.669
2382 14 0 1 0 17 0 0 0 0.763
2383 13 0 0 0 10 0 1 0 0.682
2384 14 0 1 0 18 0 1 0 0.484
2385 13 0 0 0 11 1 1 1 0.469
2386 14 0 1 0 19 1 0 1 0.47
2387 13 0 0 0 12 0 1 0 0.553
2388 14 0 1 0 20 0 0 0 0.634
2389 13 0 0 0 13 0 1 0 0.521
2390 13 0 0 0 14 0 1 0 0.538
2391 14 0 1 0 21 0 0 0 2.087
2392 13 0 0 0 15 0 0 0 0.427
2393 14 0 1 0 22 0 1 0 0.697
2394 13 0 0 0 16 0 1 0 0.687
2395 13 0 0 0 17 0 0 0 0.379
2396 14 0 1 0 23 0 0 0 1.804
2397 13 0 0 0 18 1 0 1 0.642
2398 14 0 1 0 24 0 1 0 0.502
2399 13 0 0 0 19 1 1 1 0.542
2400 14 0 1 0 25 1 1 1 0.48
2401 13 0 0 0 20 0 1 0 0.591
2402 14 0 1 0 26 1 1 1 0.339
2403 13 0 0 0 21 0 1 0 0.429
2404 14 0 1 0 27 1 1 1 0.459
2405 13 0 0 0 22 1 0 1 0.674
2406 14 0 1 0 28 0 1 0 0.502
2407 14 0 1 0 29 1 1 1 0.376
2408 13 0 0 0 23 1 1 1 1.421
2409 14 0 1 0 30 1 1 1 0.303
2410 13 0 0 0 24 1 0 1 0.542
2411 14 0 1 0 31 0 1 0 0.696
2412 13 0 0 0 25 0 1 0 0.525
2413 14 0 1 0 32 1 1 1 0.435
2414 13 0 0 0 26 1 0 1 0.558
2415 14 0 1 0 33 1 0 1 0.504
2416 13 0 0 0 27 1 0 1 0.654
2417 14 0 1 0 34 1 0 1 0.441
2418 14 0 1 0 35 1 1 1 0.286
2419 13 0 0 0 28 1 1 1 0.571
2420 14 0 1 0 36 1 1 1 0.341
2421 13 0 0 0 29 0 1 0 0.597
2422 14 0 1 0 37 1 1 1 0.228
2423 13 0 0 0 30 1 1 1 0.627
2424 14 0 1 0 38 1 0 1 0.192
2425 13 0 0 0 31 1 0 1 0.625
2426 14 0 1 0 39 0 1 0 0.453
2427 14 0 1 0 40 0 0 0 0.321
2428 13 0 0 0 32 1 1 1 0.574
2429 14 0 1 0 41 0 1 0 0.41
2430 13 0 0 0 33 0 0 0 0.622
2431 14 0 1 0 42 1 1 1 0.343
2432 13 0 0 0 34 0 0 0 0.523
2433 14 0 1 0 43 1 0 1 0.527
2434 13 0 0 0 35 0 0 0 0.46
2435 14 0 1 0 44 1 0 1 0.48
2436 13 0 0 0 36 1 1 1 0.511
2437 14 0 1 0 45 0 1 0 0.443
2438 13 0 0 0 37 1 1 1 0.529
2439 14 0 1 0 46 0 0 0 0.367
2440 13 0 0 0 38 1 1 1 0.53
2441 14 0 1 0 47 0 0 0 0.31
2442 13 0 0 0 39 0 0 0 0.435
2443 14 0 1 0 48 1 0 1 0.446
2444 13 0 0 0 40 0 1 0 0.664
2445 14 0 1 0 49 0 1 0 0.45
2446 13 0 0 0 41 0 0 0 0.628
2447 13 0 0 0 42 1 0 1 0.69
2448 13 0 0 0 43 0 0 0 0.685
2449 13 0 0 0 44 1 1 1 0.568
2450 14 0 1 1 50 1 1 1 2.489
2451 14 0 1 1 51 1 1 1 0.308
2452 13 0 0 0 45 1 0 1 0.584
2453 13 0 0 0 46 1 1 1 0.664
2454 14 0 1 1 52 0 1 1 0.245
2455 13 0 0 0 47 0 1 0 0.74
2456 14 0 1 1 53 0 0 0 0.88
2457 13 0 0 0 48 1 0 1 0.685
2458 14 0 1 1 54 0 1 0 0.524
2459 13 0 0 0 49 1 0 1 0.617
2460 14 0 1 1 55 0 1 0 1.045
2461 14 0 1 1 56 1 0 1 0.708
2462 13 0 0 1 50 0 1 0 0.632
2463 14 0 1 1 57 1 0 1 0.574
2464 13 0 0 1 51 1 1 1 0.501
2465 14 0 1 1 58 0 1 0 0.493
2466 13 0 0 1 52 0 1 0 0.488
2467 14 0 1 1 59 0 0 0 0.471
2468 13 0 0 1 53 0 0 0 0.555
2469 14 0 1 1 60 0 0 0 0.387
2470 13 0 0 1 54 0 0 0 0.49
2471 14 0 1 1 61 0 1 0 0.385
2472 13 0 0 1 55 1 1 1 0.541
2473 14 0 1 1 62 1 1 1 0.6
2474 13 0 0 1 56 1 0 1 0.541
2475 14 0 1 1 63 0 1 0 0.894
2476 13 0 0 1 57 0 1 0 0.542
2477 14 0 1 1 64 0 1 0 0.537
2478 13 0 0 1 58 1 0 1 0.622
2479 14 0 1 1 65 1 0 1 0.465
2480 13 0 0 1 59 1 1 1 0.588
2481 13 0 0 1 60 1 0 1 0.602
2482 14 0 1 1 66 1 0 1 1.533
2483 13 0 0 1 61 0 0 0 0.537
2484 14 0 1 1 67 1 1 1 0.33
2485 13 0 0 1 62 1 1 1 0.522
2486 13 0 0 1 63 1 1 1 0.588
2487 13 0 0 1 64 0 1 0 0.651
2488 14 0 1 1 68 1 0 1 3.362
2489 13 0 0 1 65 1 0 1 0.52
2490 14 0 1 1 69 1 0 1 0.421
2491 13 0 0 1 66 0 0 0 0.521
2492 14 0 1 1 70 0 1 0 0.45
2493 13 0 0 1 67 0 1 0 0.554
2494 14 0 1 1 71 0 0 0 1.03
2495 13 0 0 1 68 0 0 0 0.49
2496 14 0 1 1 72 0 0 0 0.613
2497 13 0 0 1 69 0 1 0 0.493
2498 14 0 1 1 73 1 1 1 0.435
2499 13 0 0 1 70 1 0 1 0.847
2500 14 0 1 1 74 1 1 1 0.319
2501 14 0 1 1 75 0 0 0 0.472
2502 13 0 0 1 71 0 1 0 0.852
2503 14 0 1 1 76 1 0 1 0.459
2504 13 0 0 1 72 0 0 0 0.57
2505 14 0 1 1 77 1 0 1 0.47
2506 13 0 0 1 73 0 1 0 0.586
2507 14 0 1 1 78 0 1 0 0.393
2508 13 0 0 1 74 1 0 1 0.745
2509 14 0 1 1 79 0 0 0 0.543
2510 14 0 1 1 80 0 1 0 0.495
2511 13 0 0 1 75 0 1 0 0.594
2512 14 0 1 1 81 0 1 0 0.554
2513 13 0 0 1 76 0 1 0 0.561
2514 14 0 1 1 82 1 0 1 0.442
2515 13 0 0 1 77 1 0 1 0.705
2516 14 0 1 1 83 1 0 1 0.574
2517 13 0 0 1 78 0 1 0 0.54
2518 14 0 1 1 84 1 0 1 0.461
2519 13 0 0 1 79 0 0 0 0.604
2520 14 0 1 1 85 0 0 0 0.441
2521 13 0 0 1 80 0 0 0 0.715
2522 14 0 1 1 86 0 0 0 0.325
2523 13 0 0 1 81 1 0 1 0.613
2524 14 0 1 1 87 0 0 0 0.277
2525 13 0 0 1 82 1 1 1 0.515
2526 14 0 1 1 88 1 0 1 0.495
2527 14 0 1 1 89 0 1 0 0.497
2528 13 0 0 1 83 1 0 1 0.933
2529 14 0 1 1 90 1 1 1 0.484
2530 13 0 0 1 84 1 0 1 0.6
2531 14 0 1 1 91 0 1 0 0.494
2532 13 0 0 1 85 1 0 1 0.615
2533 14 0 1 1 92 0 0 0 0.497
2534 13 0 0 1 86 0 1 0 0.565
2535 14 0 1 1 93 1 1 1 0.339
2536 13 0 0 1 87 1 1 1 0.661
2537 14 0 1 1 94 0 0 0 0.595
2538 13 0 0 1 88 0 1 0 0.657
2539 14 0 1 1 95 1 1 1 0.625
2540 13 0 0 1 89 0 0 0 0.701
2541 14 0 1 1 96 0 0 0 0.422
2542 13 0 0 1 90 1 1 1 0.616
2543 14 0 1 1 97 0 1 0 0.459
2544 13 0 0 1 91 1 0 1 0.422
2545 14 0 1 1 98 1 1 1 0.414
2546 13 0 0 1 92 1 0 1 0.46
2547 14 0 1 1 99 0 1 0 0.404
2548 13 0 0 1 93 1 1 1 0.527
2549 13 0 0 1 94 0 0 0 0.496
2550 13 0 0 1 95 1 1 1 0.498
2551 13 0 0 1 96 1 1 1 0.467
2552 13 0 0 1 97 0 0 0 0.487
2553 13 0 0 1 98 1 1 1 0.41
2554 13 0 0 1 99 0 0 0 0.495
2555 13 1 1 0 0 0 1 1 1.004
2556 13 1 1 0 1 0 0 0 0.54
2557 13 1 1 0 2 0 1 1 0.54
2558 13 1 1 0 3 0 0 0 0.46
2559 13 1 1 0 4 0 1 1 0.464
2560 13 1 1 0 5 0 1 1 0.499
2561 14 0 0 0 0 1 1 1 2.233
2562 13 1 1 0 6 0 0 0 0.421
2563 14 0 0 0 1 0 0 0 0.789
2564 13 1 1 0 7 1 0 0 0.474
2565 14 0 0 0 2 0 0 0 0.396
2566 13 1 1 0 8 0 0 0 0.509
2567 13 1 1 0 9 1 0 0 0.575
2568 14 0 0 0 3 1 0 1 1.042
2569 13 1 1 0 10 0 0 0 0.67
2570 14 0 0 0 4 0 0 0 0.881
2571 13 1 1 0 11 1 0 0 0.506
2572 14 0 0 0 5 1 1 1 0.493
2573 13 1 1 0 12 1 1 1 0.54
2574 14 0 0 0 6 1 0 1 0.336
2575 14 0 0 0 7 1 0 1 0.264
2576 13 1 1 0 13 0 1 1 0.54
2577 14 0 0 0 8 1 0 1 0.218
2578 13 1 1 0 14 1 1 1 0.445
2579 14 0 0 0 9 0 1 0 0.324
2580 13 1 1 0 15 0 1 1 0.465
2581 14 0 0 0 10 1 1 1 0.316
2582 13 1 1 0 16 1 1 1 0.42
2583 14 0 0 0 11 0 0 0 0.309
2584 14 0 0 0 12 0 1 0 0.469
2585 13 1 1 0 17 0 1 1 1.113
2586 14 0 0 0 13 1 0 1 0.409
2587 13 1 1 0 18 1 0 0 0.63
2588 13 1 1 0 19 0 1 1 0.531
2589 14 0 0 0 14 1 1 0 0.31
2590 13 1 1 0 20 1 0 0 0.548
2591 14 0 0 0 15 0 1 0 0.695
2592 13 1 1 0 21 1 1 1 0.501
2593 14 0 0 0 16 1 1 1 0.648
2594 13 1 1 0 22 0 1 1 0.471
2595 14 0 0 0 17 0 1 0 0.525
2596 13 1 1 0 23 1 1 1 0.426
2597 13 1 1 0 24 0 1 1 0.398
2598 14 0 0 0 18 0 1 0 0.51
2599 13 1 1 0 25 1 0 0 0.5
2600 14 0 0 0 19 0 1 0 0.48
2601 13 1 1 0 26 1 0 0 0.47
2602 14 0 0 0 20 0 0 0 0.535
2603 13 1 1 0 27 1 1 1 0.602
2604 14 0 0 0 21 0 0 0 0.36
2605 13 1 1 0 28 0 1 1 0.44
2606 14 0 0 0 22 1 1 1 0.471
2607 14 0 0 0 23 0 1 0 0.474
2608 13 1 1 0 29 0 1 1 0.636
2609 14 0 0 0 24 1 1 1 0.461
2610 13 1 1 0 30 0 1 1 0.442
2611 13 1 1 0 31 1 1 1 0.398
2612 14 0 0 0 25 0 0 0 0.576
2613 14 0 0 0 26 1 0 1 0.431
2614 13 1 1 0 32 1 0 0 0.58
2615 13 1 1 0 33 0 0 0 0.419
2616 14 0 0 0 27 1 0 1 0.443
2617 13 1 1 0 34 0 1 1 0.392
2618 14 0 0 0 28 0 0 0 0.463
2619 13 1 1 0 35 0 0 0 0.382
2620 14 0 0 0 29 0 1 0 0.818
2621 13 1 1 0 36 1 0 0 0.484
2622 14 0 0 0 30 0 1 0 0.376
2623 13 1 1 0 37 0 1 1 0.503
2624 14 0 0 0 31 1 0 1 0.375
2625 13 1 1 0 38 1 1 1 0.537
2626 14 0 0 0 32 0 1 0 0.501
2627 13 1 1 0 39 1 0 0 0.411
2628 14 0 0 0 33 1 1 1 0.384
2629 13 1 1 0 40 0 1 1 0.432
2630 14 0 0 0 34 0 0 0 0.709
2631 13 1 1 0 41 0 0 0 0.484
2632 14 0 0 0 35 1 0 1 0.552
2633 13 1 1 0 42 1 1 1 0.406
2634 14 0 0 0 36 1 0 1 0.32
2635 13 1 1 0 43 0 0 0 0.443
2636 14 0 0 0 37 1 1 1 0.409
2637 13 1 1 0 44 0 0 0 0.447
2638 14 0 0 0 38 1 0 1 0.366
2639 13 1 1 0 45 1 1 1 0.435
2640 14 0 0 0 39 1 0 1 0.389
2641 13 1 1 0 46 0 0 0 0.456
2642 14 0 0 0 40 0 0 0 0.355
2643 13 1 1 0 47 0 0 0 0.444
2644 14 0 0 0 41 1 0 1 0.498
2645 13 1 1 0 48 0 0 0 0.416
2646 14 0 0 0 42 0 1 0 0.348
2647 13 1 1 0 49 0 0 0 0.357
2648 14 0 0 0 43 0 1 0 0.724
2649 14 0 0 0 44 1 0 1 0.47
2650 13 1 1 1 50 1 1 1 0.399
2651 14 0 0 0 45 1 1 1 0.361
2652 13 1 1 1 51 1 1 1 0.373
2653 14 0 0 0 46 0 1 0 0.392
2654 13 1 1 1 52 0 1 1 0.348
2655 13 1 1 1 53 0 0 0 0.323
2656 14 0 0 0 47 0 1 0 0.99
2657 13 1 1 1 54 1 0 0 0.316
2658 14 0 0 0 48 1 0 1 0.495
2659 13 1 1 1 55 1 1 1 0.324
2660 14 0 0 0 49 0 1 0 0.417
2661 13 1 1 1 56 1 0 0 0.349
2662 13 1 1 1 57 0 0 0 0.405
2663 13 1 1 1 58 1 1 1 0.285
2664 13 1 1 1 59 1 1 1 0.407
2665 13 1 1 1 60 0 0 0 0.348
2666 13 1 1 1 61 0 1 1 0.34
2667 13 1 1 1 62 1 1 1 0.364
2668 13 1 1 1 63 0 1 1 0.339
2669 13 1 1 1 64 1 0 0 0.379
2670 13 1 1 1 65 1 1 1 0.353
2671 13 1 1 1 66 0 1 1 0.489
2672 14 0 0 1 50 0 1 0 0.721
2673 13 1 1 1 67 1 1 1 0.411
2674 14 0 0 1 51 0 0 0 0.411
2675 13 1 1 1 68 0 1 1 0.352
2676 14 0 0 1 52 1 1 1 0.536
2677 13 1 1 1 69 1 0 0 0.44
2678 13 1 1 1 70 0 0 0 0.38
2679 13 1 1 1 71 1 1 1 0.339
2680 14 0 0 1 53 1 0 1 2.737
2681 13 1 1 1 72 1 0 0 0.41
2682 14 0 0 1 54 1 1 1 0.539
2683 13 1 1 1 73 1 0 0 0.591
2684 14 0 0 1 55 1 0 1 0.316
2685 13 1 1 1 74 1 1 1 0.462
2686 14 0 0 1 56 0 0 0 0.525
2687 13 1 1 1 75 0 0 0 0.481
2688 13 1 1 1 76 1 1 1 0.452
2689 13 1 1 1 77 0 0 0 0.728
2690 13 1 1 1 78 1 1 1 0.418
2691 13 1 1 1 79 1 0 0 0.455
2692 13 1 1 1 80 1 1 1 0.379
2693 13 1 1 1 81 0 1 1 0.401
2694 13 1 1 1 82 0 0 0 0.407
2695 13 1 1 1 83 1 0 0 0.461
2696 13 1 1 1 84 0 0 0 0.387
2697 13 1 1 1 85 0 0 0 0.405
2698 14 0 0 1 57 0 1 0 13.502
2699 13 1 1 1 86 1 0 0 0.363
2700 13 1 1 1 87 1 1 1 0.724
2701 13 1 1 1 88 1 0 0 0.366
2702 13 1 1 1 89 1 0 0 0.581
2703 13 1 1 1 90 1 0 0 0.341
2704 14 0 0 1 58 1 1 1 4.572
2705 13 1 1 1 91 0 1 1 0.38
2706 14 0 0 1 59 0 0 0 0.444
2707 13 1 1 1 92 0 0 0 0.403
2708 14 0 0 1 60 1 1 1 0.416
2709 13 1 1 1 93 0 0 0 0.392
2710 14 0 0 1 61 1 1 1 0.309
2711 13 1 1 1 94 1 1 1 0.398
2712 14 0 0 1 62 0 0 0 0.406
2713 13 1 1 1 95 1 0 0 0.435
2714 14 0 0 1 63 1 1 1 0.315
2715 13 1 1 1 96 1 0 0 0.36
2716 14 0 0 1 64 0 1 0 0.324
2717 13 1 1 1 97 0 1 1 0.335
2718 14 0 0 1 65 1 1 1 0.292
2719 13 1 1 1 98 0 1 1 0.391
2720 14 0 0 1 66 0 0 0 0.382
2721 14 0 0 1 67 0 0 0 0.292
2722 13 1 1 1 99 1 0 0 0.413
2723 14 0 0 1 68 1 1 1 0.286
2724 14 0 0 1 69 1 0 1 0.599
2725 14 0 0 1 70 1 1 1 0.27
2726 14 0 0 1 71 0 1 0 0.361
2727 14 0 0 1 72 0 1 0 0.304
2728 14 0 0 1 73 1 0 1 0.361
2729 14 0 0 1 74 0 0 0 0.408
2730 14 0 0 1 75 1 1 1 0.309
2731 14 0 0 1 76 1 0 1 0.342
2732 14 0 0 1 77 1 0 1 0.35
2733 14 0 0 1 78 0 0 1 0.221
2734 14 0 0 1 79 0 1 0 1.289
2735 14 0 0 1 80 0 0 0 0.535
2736 13 0 1 0 0 1 0 1 1.285
2737 13 0 1 0 1 1 1 1 0.475
2738 14 0 0 1 81 1 1 1 0.648
2739 13 0 1 0 2 1 1 1 0.43
2740 14 0 0 1 82 1 0 1 0.5
2741 13 0 1 0 3 0 0 0 0.467
2742 14 0 0 1 83 0 1 0 0.399
2743 13 0 1 0 4 0 0 0 0.486
2744 14 0 0 1 84 0 0 0 0.549
2745 13 0 1 0 5 1 0 1 0.456
2746 14 0 0 1 85 0 1 0 0.525
2747 13 0 1 0 6 0 0 0 0.412
2748 14 0 0 1 86 1 1 1 0.406
2749 13 0 1 0 7 1 1 1 0.369
2750 14 0 0 1 87 1 1 1 0.363
2751 13 0 1 0 8 0 1 0 0.44
2752 14 0 0 1 88 0 0 0 0.418
2753 13 0 1 0 9 0 0 0 0.476
2754 14 0 0 1 89 0 1 0 0.408
2755 13 0 1 0 10 1 0 1 0.463
2756 14 0 0 1 90 1 0 1 0.413
2757 13 0 1 0 11 1 1 1 0.45
2758 14 0 0 1 91 0 0 0 0.474
2759 14 0 0 1 92 1 0 1 0.461
2760 13 0 1 0 12 0 1 0 0.646
2761 14 0 0 1 93 0 1 0 0.384
2762 13 0 1 0 13 0 1 0 0.659
2763 14 0 0 1 94 0 0 0 0.391
2764 13 0 1 0 14 0 0 0 0.8
2765 14 0 0 1 95 1 0 1 0.46
2766 13 0 1 0 15 1 1 1 0.679
2767 14 0 0 1 96 1 1 1 0.504
2768 13 0 1 0 16 0 1 0 0.659
2769 14 0 0 1 97 1 1 1 0.458
2770 13 0 1 0 17 0 1 0 0.431
2771 14 0 0 1 98 0 0 0 0.454
2772 14 0 0 1 99 0 0 0 0.37
2773 13 0 1 0 18 1 1 1 0.548
2774 13 0 1 0 19 0 1 0 0.676
2775 13 0 1 0 20 1 0 1 0.8
2776 13 0 1 0 21 1 1 1 0.567
2777 13 0 1 0 22 0 1 0 0.519
2778 13 0 1 0 23 1 0 1 0.425
2779 13 0 1 0 24 1 1 1 0.445
2780 13 0 1 0 25 1 1 1 0.37
2781 13 0 1 0 26 1 0 1 2.025
2782 13 0 1 0 27 1 0 1 1.124
2783 13 0 1 0 28 1 0 1 0.64
2784 13 0 1 0 29 0 1 0 0.637
2785 13 0 1 0 30 0 1 0 0.442
2786 13 0 1 0 31 1 1 1 0.494
2787 13 0 1 0 32 0 1 0 0.531
2788 14 1 1 0 0 0 1 1 5.311
2789 13 0 1 0 33 1 1 1 0.404
2790 14 1 1 0 1 0 0 0 1.221
2791 13 0 1 0 34 1 0 1 0.65
2792 13 0 1 0 35 0 0 0 0.439
2793 14 1 1 0 2 0 1 1 0.669
2794 13 0 1 0 36 1 0 1 0.459
2795 14 1 1 0 3 1 1 1 0.89
2796 13 0 1 0 37 0 1 0 0.414
2797 14 1 1 0 4 1 1 1 0.814
2798 13 0 1 0 38 0 1 0 0.5
2799 14 1 1 0 5 1 0 0 0.724
2800 13 0 1 0 39 0 1 0 0.422
2801 14 1 1 0 6 0 0 0 0.534
2802 13 0 1 0 40 0 0 0 0.571
2803 14 1 1 0 7 0 0 0 0.503
2804 13 0 1 0 41 0 1 1 0.65
2805 14 1 1 0 8 0 1 1 0.546
2806 14 1 1 0 9 1 1 1 0.482
2807 13 0 1 0 42 0 0 0 0.599
2808 14 1 1 0 10 1 0 0 0.499
2809 13 0 1 0 43 1 0 1 0.581
2810 14 1 1 0 11 1 0 0 0.357
2811 13 0 1 0 44 0 0 0 0.389
2812 14 1 1 0 12 1 1 1 0.364
2813 13 0 1 0 45 0 0 0 0.411
2814 14 1 1 0 13 1 0 0 0.403
2815 13 0 1 0 46 1 0 1 0.544
2816 14 1 1 0 14 1 1 1 0.321
2817 13 0 1 0 47 1 0 1 0.641
2818 14 1 1 0 15 1 1 1 0.378
2819 13 0 1 0 48 1 1 1 0.478
2820 14 1 1 0 16 0 1 1 0.464
2821 13 0 1 0 49 0 1 0 0.464
2822 14 1 1 0 17 0 1 1 0.372
2823 14 1 1 0 18 0 1 1 0.315
2824 14 1 1 0 19 1 0 0 0.388
2825 13 0 1 1 50 1 1 1 0.768
2826 14 1 1 0 20 1 1 1 0.354
2827 13 0 1 1 51 1 1 1 0.329
2828 14 1 1 0 21 0 0 0 0.266
2829 13 0 1 1 52 1 1 1 0.385
2830 14 1 1 0 22 1 0 0 0.404
2831 14 1 1 0 23 0 0 0 0.255
2832 13 0 1 1 53 0 1 0 0.601
2833 14 1 1 0 24 0 0 0 0.29
2834 13 0 1 1 54 0 1 0 0.615
2835 14 1 1 0 25 1 0 0 0.267
2836 13 0 1 1 55 1 1 1 0.468
2837 14 1 1 0 26 1 1 1 0.957
2838 13 0 1 1 56 0 0 0 0.455
2839 14 1 1 0 27 0 1 1 0.366
2840 13 0 1 1 57 1 0 1 0.506
2841 14 1 1 0 28 1 0 0 0.709
2842 13 0 1 1 58 1 0 1 0.573
2843 14 1 1 0 29 1 1 1 0.416
2844 13 0 1 1 59 1 1 1 0.572
2845 13 0 1 1 60 1 0 1 0.54
2846 14 1 1 0 30 1 1 1 1.589
2847 13 0 1 1 61 0 0 0 0.572
2848 14 1 1 0 31 0 0 0 0.351
2849 13 0 1 1 62 0 0 0 0.523
2850 14 1 1 0 32 0 0 0 0.295
2851 13 0 1 1 63 1 1 1 0.412
2852 14 1 1 0 33 0 1 1 0.408
2853 13 0 1 1 64 1 0 1 0.626
2854 14 1 1 0 34 1 0 0 0.557
2855 14 1 1 0 35 1 0 0 0.461
2856 13 0 1 1 65 0 0 0 0.623
2857 14 1 1 0 36 0 1 1 0.432
2858 13 0 1 1 66 1 0 1 1.197
2859 14 1 1 0 37 0 1 1 0.325
2860 14 1 1 0 38 0 0 0 0.533
2861 13 0 1 1 67 0 0 0 0.886
2862 14 1 1 0 39 1 0 0 0.382
2863 13 0 1 1 68 0 0 0 0.459
2864 14 1 1 0 40 1 1 1 0.485
2865 13 0 1 1 69 0 1 0 0.622
2866 14 1 1 0 41 1 0 0 0.424
2867 13 0 1 1 70 1 1 1 0.507
2868 14 1 1 0 42 1 0 0 0.436
2869 13 0 1 1 71 1 0 1 0.541
2870 14 1 1 0 43 0 0 0 0.385
2871 13 0 1 1 72 1 0 1 0.542
2872 14 1 1 0 44 0 0 0 0.367
2873 13 0 1 1 73 0 0 0 0.43
2874 14 1 1 0 45 1 1 1 0.35
2875 13 0 1 1 74 1 1 1 0.483
2876 14 1 1 0 46 1 0 0 0.478
2877 13 0 1 1 75 1 1 1 0.374
2878 14 1 1 0 47 1 1 1 0.273
2879 13 0 1 1 76 0 0 0 0.412
2880 14 1 1 0 48 0 1 1 0.291
2881 14 1 1 0 49 0 0 0 0.332
2882 13 0 1 1 77 1 1 1 0.465
2883 13 0 1 1 78 0 0 0 0.453
2884 13 0 1 1 79 0 0 0 0.536
2885 14 1 1 1 50 0 0 0 0.865
2886 13 0 1 1 80 0 0 0 0.426
2887 14 1 1 1 51 0 0 0 0.502
2888 13 0 1 1 81 0 0 0 0.398
2889 14 1 1 1 52 1 0 0 0.28
2890 13 0 1 1 82 0 1 0 0.532
2891 14 1 1 1 53 0 1 1 0.314
2892 13 0 1 1 83 0 0 0 0.373
2893 14 1 1 1 54 1 0 0 0.331
2894 13 0 1 1 84 1 0 1 0.443
2895 14 1 1 1 55 1 1 1 0.291
2896 13 0 1 1 85 1 0 1 0.351
2897 14 1 1 1 56 0 0 0 0.245
2898 13 0 1 1 86 0 1 0 0.599
2899 14 1 1 1 57 1 1 1 0.224
2900 14 1 1 1 58 0 0 0 0.316
2901 13 0 1 1 87 0 1 0 0.422
2902 14 1 1 1 59 0 0 0 0.324
2903 13 0 1 1 88 1 0 1 0.474
2904 14 1 1 1 60 1 0 0 0.261
2905 13 0 1 1 89 1 1 1 0.397
2906 13 0 1 1 90 0 1 0 0.595
2907 14 1 1 1 61 1 1 0 0.207
2908 14 1 1 1 62 0 1 1 0.595
2909 13 0 1 1 91 1 1 0 0.418
2910 14 1 1 1 63 1 0 0 0.466
2911 14 1 1 1 64 0 1 1 0.389
2912 14 1 1 1 65 1 1 1 0.316
2913 14 1 1 1 66 0 1 1 0.341
2914 13 0 1 1 92 1 0 1 4.47
2915 14 1 1 1 67 0 1 1 0.345
2916 14 1 1 1 68 0 1 1 0.225
2917 13 0 1 1 93 1 1 1 0.41
2918 14 1 1 1 69 0 1 1 0.221
2919 13 0 1 1 94 1 0 1 0.639
2920 14 1 1 1 70 0 1 1 0.216
2921 13 0 1 1 95 0 1 0 0.54
2922 14 1 1 1 71 0 1 1 0.341
2923 14 1 1 1 72 0 1 1 0.228
2924 13 0 1 1 96 0 1 0 0.477
2925 14 1 1 1 73 0 0 0 0.376
2926 13 0 1 1 97 0 0 0 0.544
2927 14 1 1 1 74 1 0 0 0.39
2928 13 0 1 1 98 0 0 0 0.608
2929 14 1 1 1 75 0 1 1 0.372
2930 13 0 1 1 99 0 1 0 0.542
2931 14 1 1 1 76 1 1 1 0.443
2932 14 1 1 1 77 1 1 1 0.359
2933 14 1 1 1 78 0 0 0 0.374
2934 14 1 1 1 79 1 0 0 0.357
2935 14 1 1 1 80 1 1 1 0.356
2936 14 1 1 1 81 0 0 1 0.339
2937 14 1 1 1 82 1 1 1 2.555
2938 14 1 1 1 83 0 0 0 0.411
2939 14 1 1 1 84 0 1 1 0.457
2940 14 1 1 1 85 0 0 0 0.532
2941 13 1 2 0 0 1 0 0 3.548
2942 14 1 1 1 86 1 0 0 0.533
2943 14 1 1 1 87 1 1 1 1.525
2944 13 1 2 0 1 0 0 0 1.904
2945 14 1 1 1 88 1 0 0 0.413
2946 13 1 2 0 2 1 1 1 0.973
2947 14 1 1 1 89 0 1 1 0.474
2948 13 1 2 0 3 1 0 0 0.686
2949 14 1 1 1 90 0 0 0 0.549
2950 13 1 2 0 4 1 1 1 0.489
2951 14 1 1 1 91 1 0 0 0.461
2952 13 1 2 0 5 1 0 0 0.396
2953 14 1 1 1 92 1 1 1 0.369
2954 14 1 1 1 93 1 0 0 0.456
2955 13 1 2 0 6 1 1 1 1.266
2956 14 1 1 1 94 0 0 0 0.323
2957 13 1 2 0 7 0 0 0 0.6
2958 14 1 1 1 95 1 1 1 0.34
2959 13 1 2 0 8 1 0 0 0.791
2960 14 1 1 1 96 0 0 0 0.491
2961 14 1 1 1 97 0 1 1 0.35
2962 13 1 2 0 9 0 0 0 0.606
2963 14 1 1 1 98 1 1 1 0.437
2964 13 1 2 0 10 0 0 0 0.46
2965 14 1 1 1 99 1 0 0 0.513
2966 13 1 2 0 11 0 1 1 0.544
2967 13 1 2 0 12 0 1 1 0.528
2968 13 1 2 0 13 1 1 1 0.353
2969 13 1 2 0 14 1 0 0 0.393
2970 13 1 2 0 15 0 1 1 0.414
2971 13 1 2 0 16 0 1 0 0.532
2972 13 1 2 0 17 1 0 0 0.581
2973 13 1 2 0 18 0 1 1 0.5
2974 13 1 2 0 19 1 0 0 0.694
2975 13 1 2 0 20 1 0 0 0.593
2976 13 1 2 0 21 0 1 1 0.464
2977 13 1 2 0 22 0 0 0 0.403
2978 13 1 2 0 23 1 1 1 0.361
2979 13 1 2 0 24 1 0 0 0.48
2980 13 1 2 0 25 1 1 1 0.418
2981 13 1 2 0 26 1 0 0 0.551
2982 13 1 2 0 27 1 1 1 0.35
2983 13 1 2 0 28 0 0 0 0.502
2984 13 1 2 0 29 0 1 1 0.392
2985 13 1 2 0 30 1 1 1 0.574
2986 13 1 2 0 31 1 0 0 0.429
2987 13 1 2 0 32 0 0 0 0.738
2988 13 1 2 0 33 0 0 0 0.379
2989 14 1 2 0 0 1 1 1 6.358
2990 13 1 2 0 34 1 1 1 0.545
2991 13 1 2 0 35 1 1 1 0.354
2992 13 1 2 0 36 0 1 1 0.297
2993 13 1 2 0 37 0 1 1 0.37
2994 14 1 2 0 1 1 0 0 2.939
2995 13 1 2 0 38 0 0 0 0.489
2996 14 1 2 0 2 1 0 0 0.518
2997 13 1 2 0 39 1 0 0 0.347
2998 14 1 2 0 3 1 1 1 0.4
2999 13 1 2 0 40 1 1 1 0.467
3000 13 1 2 0 41 0 0 0 0.454
3001 13 1 2 0 42 0 0 0 0.458
3002 14 1 2 0 4 0 1 1 3.421
3003 13 1 2 0 43 0 0 0 0.573
3004 13 1 2 0 44 0 1 1 0.38
3005 13 1 2 0 45 0 0 0 0.435
3006 14 1 2 0 5 1 0 0 2.999
3007 13 1 2 0 46 1 0 0 0.423
3008 14 1 2 0 6 0 0 0 0.911
3009 13 1 2 0 47 1 0 0 0.556
3010 13 1 2 0 48 1 0 0 0.332
3011 14 1 2 0 7 0 0 0 0.651
3012 13 1 2 0 49 0 1 1 0.404
3013 14 1 2 0 8 0 0 0 0.767
3014 14 1 2 0 9 1 0 0 1.792
3015 13 1 2 1 50 1 1 1 0.767
3016 13 1 2 1 51 1 0 0 0.44
3017 13 1 2 1 52 1 1 1 0.252
3018 14 1 2 0 10 0 1 1 1.964
3019 13 1 2 1 53 1 1 1 0.439
3020 14 1 2 0 11 1 1 1 0.81
3021 13 1 2 1 54 1 1 1 0.331
3022 13 1 2 1 55 0 1 1 0.339
3023 14 1 2 0 12 0 1 1 0.689
3024 13 1 2 1 56 0 0 0 0.459
3025 14 1 2 0 13 1 1 1 0.548
3026 13 1 2 1 57 1 0 0 0.318
3027 14 1 2 0 14 1 0 0 0.325
3028 13 1 2 1 58 0 0 0 0.279
3029 14 1 2 0 15 0 0 0 0.333
3030 14 1 2 0 16 1 0 0 0.341
3031 13 1 2 1 59 0 1 0 0.257
3032 14 1 2 0 17 0 0 0 0.252
3033 13 1 2 1 60 0 1 1 0.459
3034 14 1 2 0 18 1 0 0 0.272
3035 13 1 2 1 61 1 0 0 0.366
3036 14 1 2 0 19 0 1 1 0.257
3037 13 1 2 1 62 1 0 0 0.405
3038 14 1 2 0 20 1 1 1 0.268
3039 14 1 2 0 21 0 1 1 0.263
3040 13 1 2 1 63 1 1 1 0.411
3041 14 1 2 0 22 0 1 1 0.305
3042 13 1 2 1 64 0 0 0 0.368
3043 14 1 2 0 23 0 1 1 0.618
3044 13 1 2 1 65 0 1 1 0.663
3045 14 1 2 0 24 0 1 1 0.4
3046 13 1 2 1 66 0 0 0 0.452
3047 14 1 2 0 25 1 0 0 0.374
3048 13 1 2 1 67 0 1 1 0.472
3049 14 1 2 0 26 1 1 1 0.38
3050 13 1 2 1 68 1 0 0 0.426
3051 14 1 2 0 27 1 0 0 0.267
3052 13 1 2 1 69 0 1 1 0.399
3053 14 1 2 0 28 0 1 1 0.269
3054 13 1 2 1 70 1 1 1 0.405
3055 14 1 2 0 29 1 1 1 0.311
3056 13 1 2 1 71 0 1 1 0.362
3057 14 1 2 0 30 0 1 1 0.279
3058 13 1 2 1 72 1 1 1 0.417
3059 14 1 2 0 31 1 1 1 0.321
3060 13 1 2 1 73 0 0 0 0.406
3061 14 1 2 0 32 0 0 0 0.553
3062 13 1 2 1 74 0 1 1 1.292
3063 14 1 2 0 33 0 1 1 0.562
3064 13 1 2 1 75 0 1 1 0.337
3065 14 1 2 0 34 1 1 1 0.362
3066 13 1 2 1 76 1 0 0 0.457
3067 14 1 2 0 35 0 1 1 0.393
3068 13 1 2 1 77 1 0 0 0.332
3069 14 1 2 0 36 1 0 0 0.327
3070 13 1 2 1 78 1 0 0 0.388
3071 14 1 2 0 37 1 1 1 0.431
3072 13 1 2 1 79 0 0 0 0.283
3073 14 1 2 0 38 0 0 0 0.307
3074 13 1 2 1 80 0 0 0 0.389
3075 14 1 2 0 39 1 1 0 0.332
3076 13 1 2 1 81 1 1 1 0.411
3077 13 1 2 1 82 0 1 1 0.399
3078 14 1 2 0 40 1 1 1 0.587
3079 14 1 2 0 41 0 1 1 0.298
3080 13 1 2 1 83 0 0 0 0.468
3081 14 1 2 0 42 0 1 1 0.308
3082 13 1 2 1 84 0 0 0 0.36
3083 14 1 2 0 43 1 1 1 0.3
3084 13 1 2 1 85 0 1 1 0.463
3085 13 1 2 1 86 0 1 1 0.498
3086 14 1 2 0 44 0 0 0 0.829
3087 14 1 2 0 45 1 1 1 0.844
3088 13 1 2 1 87 0 1 1 0.965
3089 13 1 2 1 88 1 1 1 0.39
3090 14 1 2 0 46 0 1 1 0.721
3091 13 1 2 1 89 1 0 0 0.396
3092 13 1 2 1 90 1 1 1 0.354
3093 13 1 2 1 91 1 1 1 0.466
3094 14 1 2 0 47 0 0 0 3.675
3095 13 1 2 1 92 1 1 1 0.421
3096 14 1 2 0 48 0 1 1 0.419
3097 13 1 2 1 93 1 1 1 0.346
3098 14 1 2 0 49 0 0 0 0.281
3099 13 1 2 1 94 0 0 0 0.45
3100 13 1 2 1 95 1 1 1 0.326
3101 13 1 2 1 96 0 0 0 0.494
3102 13 1 2 1 97 0 0 0 0.4
3103 13 1 2 1 98 1 0 0 0.342
3104 13 1 2 1 99 0 1 1 0.542
3105 14 1 2 1 50 1 0 0 0.996
3106 14 1 2 1 51 1 1 1 0.397
3107 14 1 2 1 52 0 0 0 0.435
3108 14 1 2 1 53 0 1 1 0.335
3109 14 1 2 1 54 0 0 1 0.255
3110 14 1 2 1 55 0 0 0 0.465
3111 14 1 2 1 56 1 1 1 0.389
3112 14 1 2 1 57 1 1 1 0.41
3113 14 1 2 1 58 0 0 0 0.424
3114 14 1 2 1 59 0 0 0 0.428
3115 14 1 2 1 60 0 0 0 0.345
3116 14 1 2 1 61 1 0 0 0.312
3117 14 1 2 1 62 0 0 0 0.313
3118 14 1 2 1 63 1 1 1 0.482
3119 14 1 2 1 64 1 0 0 0.421
3120 14 1 2 1 65 1 0 0 0.321
3121 14 1 2 1 66 1 1 1 0.322
3122 14 1 2 1 67 1 1 1 0.451
3123 14 1 2 1 68 1 1 1 0.318
3124 14 1 2 1 69 1 1 1 0.286
3125 14 1 2 1 70 1 0 0 0.36
3126 14 1 2 1 71 0 0 0 0.519
3127 14 1 2 1 72 1 0 0 0.28
3128 14 1 2 1 73 1 1 1 0.37
3129 14 1 2 1 74 0 1 1 2.256
3130 14 1 2 1 75 1 0 0 0.516
3131 14 1 2 1 76 0 0 0 0.741
3132 14 1 2 1 77 0 1 1 0.439
3133 14 1 2 1 78 0 0 0 0.371
3134 14 1 2 1 79 1 0 0 0.386
3135 14 1 2 1 80 0 1 1 0.392
3136 14 1 2 1 81 1 0 0 0.31
3137 14 1 2 1 82 1 1 1 0.367
3138 14 1 2 1 83 1 0 0 0.278
3139 14 1 2 1 84 0 1 1 0.248
3140 14 1 2 1 85 0 0 0 0.218
3141 14 1 2 1 86 1 0 0 0.343
3142 14 1 2 1 87 1 0 0 0.334
3143 14 1 2 1 88 1 0 0 0.35
3144 14 1 2 1 89 0 0 0 0.238
3145 14 1 2 1 90 0 1 1 0.546
3146 14 1 2 1 91 0 1 1 0.338
3147 14 1 2 1 92 1 0 0 0.314
3148 14 1 2 1 93 1 1 1 0.33
3149 14 1 2 1 94 0 1 1 0.331
3150 14 1 2 1 95 1 0 0 0.466
3151 14 1 2 1 96 0 0 0 0.374
3152 14 1 2 1 97 0 0 0 0.332
3153 14 1 2 1 98 0 0 0 0.252
3154 14 1 2 1 99 0 1 1 0.287
3155 14 1 0 0 0 0 0 0 3.061
3156 14 1 0 0 1 0 0 0 0.3
3157 14 1 0 0 2 0 0 0 0.309
3158 14 1 0 0 3 0 0 0 0.39
3159 14 1 0 0 4 0 1 1 0.315
3160 14 1 0 0 5 0 0 0 0.676
3161 14 1 0 0 6 1 1 1 1.143
3162 14 1 0 0 7 0 1 1 0.841
3163 14 1 0 0 8 0 0 0 0.727
3164 14 1 0 0 9 0 1 1 0.321
3165 14 1 0 0 10 0 1 1 0.729
3166 14 1 0 0 11 0 0 0 0.827
3167 14 1 0 0 12 1 0 0 1.081
3168 14 1 0 0 13 1 0 0 0.799
3169 14 1 0 0 14 0 0 0 0.406
3170 14 1 0 0 15 1 1 1 1.74
3171 14 1 0 0 16 1 1 1 0.369
3172 14 1 0 0 17 0 1 1 0.36
3173 14 1 0 0 18 1 1 1 0.455
3174 14 1 0 0 19 0 0 0 0.49
3175 14 1 0 0 20 0 0 0 0.348
3176 14 1 0 0 21 1 0 0 0.644
3177 14 1 0 0 22 0 1 1 0.729
3178 14 1 0 0 23 1 1 1 0.307
3179 14 1 0 0 24 1 0 0 0.492
3180 14 1 0 0 25 0 0 0 0.462
3181 14 1 0 0 26 1 1 1 0.569
3182 14 1 0 0 27 0 1 1 0.552
3183 14 1 0 0 28 1 0 0 0.936
3184 14 1 0 0 29 0 0 0 0.387
3185 14 1 0 0 30 0 0 0 0.322
3186 14 1 0 0 31 1 1 1 0.354
3187 14 1 0 0 32 0 0 0 0.632
3188 14 1 0 0 33 0 1 1 0.621
3189 14 1 0 0 34 1 1 1 0.41
3190 14 1 0 0 35 0 1 1 0.376
3191 14 1 0 0 36 1 0 1 0.326
3192 14 1 0 0 37 1 1 1 0.942
3193 14 1 0 0 38 1 1 1 0.384
3194 14 1 0 0 39 0 1 1 0.334
3195 14 1 0 0 40 0 1 1 0.342
3196 14 1 0 0 41 1 1 1 0.461
3197 14 1 0 0 42 0 1 1 0.417
3198 14 1 0 0 43 1 0 0 0.477
3199 14 1 0 0 44 0 1 1 5.688
3200 14 1 0 0 45 1 1 1 0.6
3201 14 1 0 0 46 1 0 0 0.647
3202 14 1 0 0 47 1 0 0 0.376
3203 14 1 0 0 48 1 1 1 0.335
3204 14 1 0 0 49 0 1 1 0.711
3205 14 1 0 1 50 0 1 1 0.841
3206 14 1 0 1 51 1 0 0 0.799
3207 14 1 0 1 52 0 1 1 0.397
3208 14 1 0 1 53 1 0 0 0.507
3209 14 1 0 1 54 0 1 1 0.749
3210 14 1 0 1 55 0 0 0 0.574
3211 14 1 0 1 56 1 1 1 0.694
3212 14 1 0 1 57 1 1 1 0.649
3213 14 1 0 1 58 1 0 0 0.566
3214 14 1 0 1 59 0 0 0 0.333
3215 14 1 0 1 60 0 1 1 0.293
3216 14 1 0 1 61 1 0 0 0.654
3217 14 1 0 1 62 1 0 0 0.363
3218 14 1 0 1 63 1 1 1 0.386
3219 14 1 0 1 64 1 0 0 5.881
3220 14 1 0 1 65 0 0 0 0.474
3221 14 1 0 1 66 0 1 1 0.877
3222 14 1 0 1 67 0 1 1 0.289
3223 14 1 0 1 68 1 1 1 0.418
3224 14 1 0 1 69 1 1 1 0.368
3225 14 1 0 1 70 1 0 0 0.407
3226 14 1 0 1 71 1 0 0 0.284
3227 14 1 0 1 72 0 0 0 0.334
3228 14 1 0 1 73 0 1 1 0.326
3229 14 1 0 1 74 1 1 1 0.358
3230 14 1 0 1 75 1 0 0 0.525
3231 14 1 0 1 76 1 0 0 0.378
3232 14 1 0 1 77 0 1 1 0.376
3233 14 1 0 1 78 1 0 1 0.406
3234 14 1 0 1 79 0 1 1 0.499
3235 14 1 0 1 80 1 1 1 0.638
3236 14 1 0 1 81 1 1 1 0.414
3237 14 1 0 1 82 0 0 0 0.303
3238 14 1 0 1 83 0 0 0 0.423
3239 14 1 0 1 84 1 1 1 0.364
3240 14 1 0 1 85 1 1 1 0.619
3241 14 1 0 1 86 0 0 0 0.385
3242 14 1 0 1 87 1 0 0 0.478
3243 14 1 0 1 88 1 0 0 0.353
3244 14 1 0 1 89 1 0 0 0.28
3245 14 1 0 1 90 1 0 0 0.314
3246 14 1 0 1 91 0 0 0 0.275
3247 14 1 0 1 92 1 0 0 0.301
3248 14 1 0 1 93 0 1 1 0.374
3249 14 1 0 1 94 0 1 1 0.364
3250 14 1 0 1 95 1 1 1 0.659
3251 14 1 0 1 96 1 1 1 0.392
3252 14 1 0 1 97 0 0 0 0.357
3253 14 1 0 1 98 0 0 0 0.42
3254 14 1 0 1 99 0 0 0 0.37
3255 14 0 2 0 0 0 0 0 3.25
3256 14 0 2 0 1 1 1 1 0.641
3257 14 0 2 0 2 0 1 0 1.222
3258 14 0 2 0 3 1 0 1 0.566
3259 14 0 2 0 4 0 0 0 0.573
3260 14 0 2 0 5 0 0 0 0.396
3261 14 0 2 0 6 0 0 0 0.338
3262 14 0 2 0 7 0 1 0 0.482
3263 14 0 2 0 8 0 1 0 0.437
3264 14 0 2 0 9 0 1 0 0.37
3265 14 0 2 0 10 1 1 1 0.409
3266 14 0 2 0 11 1 1 1 0.446
3267 14 0 2 0 12 0 0 0 0.89
3268 14 0 2 0 13 0 0 0 0.302
3269 14 0 2 0 14 0 1 0 0.383
3270 14 0 2 0 15 1 1 1 0.526
3271 14 0 2 0 16 0 1 1 1.711
3272 14 0 2 0 17 0 1 0 1.678
3273 14 0 2 0 18 0 1 0 0.51
3274 14 0 2 0 19 0 0 0 0.359
3275 14 0 2 0 20 0 0 0 0.302
3276 14 0 2 0 21 1 1 0 0.36
3277 14 0 2 0 22 0 1 1 3.942
3278 14 0 2 0 23 1 0 1 0.621
3279 14 0 2 0 24 0 1 0 0.858
3280 14 0 2 0 25 1 1 1 2.191
3281 14 0 2 0 26 0 0 0 0.461
3282 14 0 2 0 27 1 0 1 0.528
3283 14 0 2 0 28 0 0 0 0.593
3284 14 0 2 0 29 0 1 0 0.56
3285 14 0 2 0 30 1 1 1 0.479
3286 14 0 2 0 31 1 1 1 0.563
3287 14 0 2 0 32 1 0 1 0.531
3288 14 0 2 0 33 1 1 1 0.467
3289 14 0 2 0 34 0 0 0 0.406
3290 14 0 2 0 35 0 0 0 0.444
3291 14 0 2 0 36 0 0 0 0.408
3292 14 0 2 0 37 1 1 1 0.525
3293 14 0 2 0 38 1 1 1 0.332
3294 14 0 2 0 39 0 0 0 0.412
3295 14 0 2 0 40 1 0 0 0.329
3296 14 0 2 0 41 1 1 1 0.489
3297 14 0 2 0 42 1 0 1 0.658
3298 14 0 2 0 43 0 0 0 0.566
3299 14 0 2 0 44 0 1 0 0.878
3300 14 0 2 0 45 1 0 1 0.435
3301 14 0 2 0 46 1 0 1 0.488
3302 14 0 2 0 47 0 1 0 0.418
3303 14 0 2 0 48 1 0 1 0.398
3304 14 0 2 0 49 1 0 1 0.46
3305 14 0 2 1 50 1 1 1 0.384
3306 14 0 2 1 51 1 1 1 0.319
3307 14 0 2 1 52 0 0 0 0.367
3308 14 0 2 1 53 1 1 1 0.422
3309 14 0 2 1 54 1 1 1 0.427
3310 14 0 2 1 55 1 0 1 0.407
3311 14 0 2 1 56 0 1 0 0.38
3312 14 0 2 1 57 1 0 1 0.411
3313 14 0 2 1 58 0 1 0 0.32
3314 14 0 2 1 59 1 0 1 0.289
3315 14 0 2 1 60 1 1 1 0.418
3316 14 0 2 1 61 0 0 0 0.532
3317 14 0 2 1 62 1 0 1 0.557
3318 14 0 2 1 63 1 0 1 0.397
3319 14 0 2 1 64 1 1 1 0.963
3320 14 0 2 1 65 0 1 0 0.476
3321 14 0 2 1 66 1 0 1 0.783
3322 14 0 2 1 67 0 1 0 0.56
3323 14 0 2 1 68 0 0 1 0.455
3324 14 0 2 1 69 0 0 0 0.419
3325 14 0 2 1 70 0 1 0 0.704
3326 14 0 2 1 71 0 0 0 0.45
3327 14 0 2 1 72 1 1 1 0.43
3328 14 0 2 1 73 0 1 0 0.475
3329 14 0 2 1 74 1 0 1 0.43
3330 14 0 2 1 75 0 1 0 0.778
3331 14 0 2 1 76 0 1 0 0.386
3332 14 0 2 1 77 1 1 1 0.456
3333 14 0 2 1 78 0 1 0 0.444
3334 14 0 2 1 79 1 0 1 0.448
3335 14 0 2 1 80 1 0 1 0.538
3336 14 0 2 1 81 0 0 0 0.467
3337 14 0 2 1 82 0 1 0 0.411
3338 14 0 2 1 83 1 1 1 0.459
3339 14 0 2 1 84 1 1 1 0.478
3340 14 0 2 1 85 1 0 1 0.529
3341 14 0 2 1 86 1 1 1 0.423
3342 14 0 2 1 87 0 0 0 0.628
3343 14 0 2 1 88 0 1 0 0.665
3344 14 0 2 1 89 0 0 0 0.406
3345 14 0 2 1 90 1 0 1 0.411
3346 14 0 2 1 91 1 1 1 0.497
3347 14 0 2 1 92 0 1 0 0.483
3348 14 0 2 1 93 1 0 1 0.413
3349 14 0 2 1 94 1 0 1 0.466
3350 14 0 2 1 95 1 0 1 0.672
3351 14 0 2 1 96 0 0 1 0.332
3352 14 0 2 1 97 0 0 0 0.675
3353 14 0 2 1 98 1 0 1 0.471
3354 14 0 2 1 99 1 1 1 0.474
3355 17 0 0 0 0 1 0 1 5.321
3356 17 0 0 0 1 0 0 0 1.614
3357 17 0 0 0 2 0 0 0 0.944
3358 17 0 0 0 3 1 1 1 1.082
3359 17 0 0 0 4 0 1 0 1.016
3360 17 0 0 0 5 0 0 0 1.032
3361 17 0 0 0 6 0 0 0 0.463
3362 17 0 0 0 7 1 1 1 1.098
3363 17 0 0 0 8 0 0 0 0.975
3364 17 0 0 0 9 0 0 0 4.88
3365 17 0 0 0 10 0 1 0 0.445
3366 17 0 0 0 11 0 1 0 0.649
3367 17 0 0 0 12 0 0 0 1.102
3368 17 0 0 0 13 0 1 0 4.843
3369 17 0 0 0 14 0 1 0 0.513
3370 17 0 0 0 15 0 1 0 1.691
3371 17 0 0 0 16 0 0 0 0.658
3372 17 0 0 0 17 1 0 1 1.463
3373 17 0 0 0 18 0 1 0 0.875
3374 17 0 0 0 19 0 0 0 2.039
3375 17 0 0 0 20 0 1 0 0.613
3376 17 0 0 0 21 0 0 0 0.595
3377 17 0 0 0 22 1 1 1 0.874
3378 17 0 0 0 23 0 1 0 1.015
3379 17 0 0 0 24 1 1 1 1.214
3380 17 0 0 0 25 1 1 1 0.447
3381 17 0 0 0 26 0 1 0 0.891
3382 17 0 0 0 27 1 1 1 0.839
3383 17 0 0 0 28 1 1 1 0.368
3384 17 0 0 0 29 1 1 1 0.551
3385 17 0 0 0 30 1 0 1 0.591
3386 17 0 0 0 31 0 0 0 0.83
3387 17 0 0 0 32 1 1 1 0.46
3388 17 0 0 0 33 0 0 0 1.112
3389 17 0 0 0 34 1 0 1 0.436
3390 17 0 0 0 35 1 1 1 0.417
3391 17 0 0 0 36 1 1 1 0.35
3392 17 0 0 0 37 1 0 1 0.301
3393 17 0 0 0 38 0 0 0 0.863
3394 17 0 0 0 39 0 1 0 0.844
3395 17 0 0 0 40 1 1 1 0.898
3396 17 0 0 0 41 1 1 1 0.445
3397 17 0 0 0 42 0 1 0 0.737
3398 17 0 0 0 43 1 0 1 0.827
3399 17 0 0 0 44 0 1 0 0.945
3400 17 0 0 0 45 0 0 0 0.459
3401 17 0 0 0 46 0 1 0 0.471
3402 17 0 0 0 47 1 0 1 1.081
3403 17 0 0 0 48 0 0 0 0.838
3404 17 0 0 0 49 1 1 1 0.732
3405 17 0 0 1 50 0 0 0 1.834
3406 17 0 0 1 51 1 0 1 0.916
3407 17 0 0 1 52 1 0 1 0.607
3408 17 0 0 1 53 1 1 1 0.365
3409 17 0 0 1 54 1 0 1 0.3
3410 17 0 0 1 55 1 1 1 0.382
3411 17 0 0 1 56 1 1 1 0.268
3412 17 0 0 1 57 1 0 1 0.295
3413 17 0 0 1 58 1 1 1 0.864
3414 17 0 0 1 59 0 1 0 0.901
3415 17 0 0 1 60 0 0 0 0.673
3416 17 0 0 1 61 0 1 0 0.501
3417 17 0 0 1 62 0 0 0 0.271
3418 17 0 0 1 63 1 1 1 0.458
3419 17 0 0 1 64 1 0 1 0.429
3420 17 0 0 1 65 1 0 1 0.394
3421 17 0 0 1 66 0 1 0 0.439
3422 17 0 0 1 67 0 0 0 0.427
3423 17 0 0 1 68 0 1 0 0.384
3424 17 0 0 1 69 1 0 1 0.502
3425 17 0 0 1 70 0 0 0 0.552
3426 17 0 0 1 71 1 0 1 0.553
3427 17 0 0 1 72 0 0 0 0.737
3428 17 0 0 1 73 1 0 1 0.562
3429 17 0 0 1 74 1 0 1 0.802
3430 17 0 0 1 75 1 1 1 3.114
3431 17 0 0 1 76 1 0 1 0.59
3432 17 0 0 1 77 0 1 0 0.805
3433 17 0 0 1 78 1 1 1 0.86
3434 17 0 0 1 79 0 0 0 2.073
3435 17 0 0 1 80 0 0 0 0.475
3436 17 0 0 1 81 1 1 1 0.325
3437 17 0 0 1 82 1 0 1 0.406
3438 17 0 0 1 83 0 0 0 0.491
3439 17 0 0 1 84 0 1 0 0.501
3440 17 0 0 1 85 0 0 0 0.423
3441 17 0 0 1 86 1 0 1 0.516
3442 17 0 0 1 87 1 1 1 0.638
3443 17 0 0 1 88 1 0 1 0.467
3444 17 0 0 1 89 0 1 0 0.886
3445 17 0 0 1 90 1 1 1 2.251
3446 17 0 0 1 91 0 1 0 1.366
3447 17 0 0 1 92 1 0 1 0.689
3448 17 0 0 1 93 0 1 0 0.532
3449 17 0 0 1 94 1 0 1 0.525
3450 17 0 0 1 95 0 1 0 0.574
3451 17 0 0 1 96 1 1 1 1.686
3452 17 0 0 1 97 1 0 1 0.501
3453 17 0 0 1 98 0 1 0 0.479
3454 17 0 0 1 99 1 0 1 0.442
3455 17 1 1 0 0 0 1 1 3.304
3456 17 1 1 0 1 0 0 0 2.718
3457 17 1 1 0 2 1 0 0 0.761
3458 17 1 1 0 3 1 1 1 0.442
3459 17 1 1 0 4 0 1 1 0.805
3460 17 1 1 0 5 0 1 1 0.917
3461 17 1 1 0 6 1 0 0 0.52
3462 17 1 1 0 7 1 1 1 0.322
3463 17 1 1 0 8 0 1 1 0.402
3464 17 1 1 0 9 0 1 1 0.328
3465 17 1 1 0 10 1 1 1 0.384
3466 17 1 1 0 11 0 0 0 0.391
3467 17 1 1 0 12 0 0 0 0.356
3468 17 1 1 0 13 0 1 1 0.531
3469 17 1 1 0 14 1 1 1 0.468
3470 17 1 1 0 15 1 1 1 0.464
3471 17 1 1 0 16 0 0 0 0.451
3472 17 1 1 0 17 0 0 0 0.471
3473 17 1 1 0 18 0 1 1 0.33
3474 17 1 1 0 19 0 0 0 0.49
3475 17 1 1 0 20 1 0 0 0.829
3476 17 1 1 0 21 0 0 0 0.355
3477 17 1 1 0 22 1 0 0 0.275
3478 17 1 1 0 23 1 1 1 0.333
3479 17 1 1 0 24 1 0 0 0.325
3480 17 1 1 0 25 0 1 1 0.381
3481 17 1 1 0 26 1 0 0 0.371
3482 17 1 1 0 27 0 0 0 0.306
3483 17 1 1 0 28 0 0 0 0.26
3484 17 1 1 0 29 1 0 0 0.406
3485 17 1 1 0 30 1 1 1 0.299
3486 17 1 1 0 31 1 0 0 0.373
3487 17 1 1 0 32 0 1 1 0.515
3488 17 1 1 0 33 0 0 0 0.261
3489 17 1 1 0 34 0 1 1 0.231
3490 17 1 1 0 35 0 0 0 0.395
3491 17 1 1 0 36 0 1 1 0.737
3492 17 1 1 0 37 1 1 1 0.818
3493 17 1 1 0 38 0 1 1 0.473
3494 17 1 1 0 39 0 0 0 0.332
3495 17 1 1 0 40 1 0 0 0.724
3496 17 1 1 0 41 0 0 0 0.286
3497 17 1 1 0 42 1 0 0 0.288
3498 17 1 1 0 43 1 0 0 0.362
3499 17 1 1 0 44 0 0 0 0.409
3500 17 1 1 0 45 1 1 1 0.318
3501 17 1 1 0 46 0 1 1 0.295
3502 17 1 1 0 47 1 1 1 0.336
3503 17 1 1 0 48 0 1 1 0.385
3504 17 1 1 0 49 0 0 0 0.375
3505 17 1 1 1 50 1 1 1 0.698
3506 17 1 1 1 51 1 1 1 0.237
3507 17 1 1 1 52 0 1 1 0.657
3508 17 1 1 1 53 1 0 0 0.933
3509 17 1 1 1 54 1 1 1 0.296
3510 17 1 1 1 55 1 1 1 0.305
3511 17 1 1 1 56 0 1 1 0.251
3512 17 1 1 1 57 1 0 0 0.318
3513 17 1 1 1 58 1 0 0 0.359
3514 17 1 1 1 59 0 0 0 0.302
3515 17 1 1 1 60 0 1 1 0.245
3516 17 1 1 1 61 0 0 0 0.416
3517 17 1 1 1 62 1 0 0 1.702
3518 17 1 1 1 63 0 0 0 0.46
3519 17 1 1 1 64 0 1 1 0.288
3520 17 1 1 1 65 1 1 1 0.345
3521 17 1 1 1 66 1 1 1 0.305
3522 17 1 1 1 67 1 1 1 0.226
3523 17 1 1 1 68 0 0 0 0.23
3524 17 1 1 1 69 0 0 0 0.17
3525 17 1 1 1 70 1 0 0 0.2
3526 17 1 1 1 71 1 0 0 0.253
3527 17 1 1 1 72 0 1 1 0.232
3528 17 1 1 1 73 0 1 1 0.324
3529 17 1 1 1 74 1 1 1 0.188
3530 17 1 1 1 75 1 1 1 0.249
3531 17 1 1 1 76 1 0 0 0.285
3532 17 1 1 1 77 0 1 1 0.479
3533 17 1 1 1 78 1 1 1 0.401
3534 17 1 1 1 79 1 1 1 0.287
3535 17 1 1 1 80 0 0 0 0.329
3536 17 1 1 1 81 0 0 0 0.561
3537 17 1 1 1 82 0 1 1 0.388
3538 17 1 1 1 83 1 1 0 0.322
3539 17 1 1 1 84 0 0 0 1.074
3540 17 1 1 1 85 1 1 1 0.832
3541 17 1 1 1 86 1 0 0 0.406
3542 17 1 1 1 87 0 1 1 0.564
3543 17 1 1 1 88 0 0 0 0.668
3544 17 1 1 1 89 0 1 1 0.264
3545 17 1 1 1 90 1 0 0 0.426
3546 17 1 1 1 91 1 0 0 0.855
3547 17 1 1 1 92 1 0 0 0.404
3548 17 1 1 1 93 1 0 0 0.313
3549 17 1 1 1 94 0 0 0 0.37
3550 17 1 1 1 95 0 1 1 0.249
3551 17 1 1 1 96 1 0 0 0.332
3552 17 1 1 1 97 1 1 1 0.596
3553 17 1 1 1 98 1 1 1 0.411
3554 17 1 1 1 99 1 0 0 0.448
3555 17 0 1 0 0 0 1 0 1.23
3556 17 0 1 0 1 0 0 0 0.454
3557 17 0 1 0 2 1 1 1 0.538
3558 17 0 1 0 3 1 0 1 0.531
3559 17 0 1 0 4 0 0 0 0.516
3560 17 0 1 0 5 1 0 1 0.582
3561 17 0 1 0 6 0 0 0 0.389
3562 17 0 1 0 7 0 0 0 0.46
3563 17 0 1 0 8 1 1 1 0.407
3564 17 0 1 0 9 0 0 0 0.348
3565 17 0 1 0 10 1 1 1 0.492
