datID sessionID block trial background target forePeriod resp rt
1 360 0 0 0 1 32 0 1.262
2 360 0 1 0 8 31 0 0.934
3 360 0 2 0 9 35 1 0.604
4 360 0 3 0 0 31 0 0.617
5 360 0 4 0 7 31 0 0.486
6 360 0 5 0 5 35 0 0.373
7 360 0 6 0 2 32 0 0.446
8 360 0 7 0 3 31 0 0.55
9 360 0 8 0 4 31 0 0.598
10 360 0 9 0 6 43 0 0.484
11 361 0 0 0 8 32 0 0.487
12 361 0 1 0 3 34 0 0.4
13 361 0 2 0 12 32 1 0.66
14 361 0 3 1 13 31 1 0.606
15 361 0 4 1 7 31 1 0.601
16 361 0 5 2 15 34 1 0.483
17 361 0 6 2 20 33 1 0.399
18 361 0 7 0 5 32 0 0.369
19 361 0 8 1 17 41 1 0.349
20 361 0 9 0 8 32 0 0.499
21 361 0 10 1 15 31 1 0.467
22 361 0 11 2 7 42 0 0.474
23 361 0 12 0 9 31 0 0.346
24 361 0 13 1 3 41 0 0.263
25 361 0 14 1 18 35 1 0.282
26 361 0 15 0 5 31 0 0.467
27 361 0 16 2 11 36 0 0.485
28 361 0 17 0 16 31 1 0.212
29 361 0 18 2 6 31 0 0.381
30 361 0 19 0 6 35 0 0.447
31 361 0 20 1 11 33 1 0.272
32 361 0 21 2 1 32 0 0.28
33 361 0 22 0 13 32 1 0.333
34 361 0 23 0 13 36 1 0.24
35 361 0 24 1 0 31 0 0.211
36 361 0 25 2 15 37 1 0.443
37 361 0 26 1 20 34 1 0.378
38 361 0 27 0 1 31 0 0.184
39 361 0 28 2 9 31 0 0.305
40 361 0 29 2 2 32 0 0.291
41 361 0 30 0 9 32 1 0.251
42 361 0 31 2 1 33 0 0.356
43 361 0 32 0 19 36 1 0.341
44 361 0 33 0 18 32 1 0.295
45 361 0 34 0 15 32 1 0.265
46 361 0 35 2 10 35 0 0.384
47 361 0 36 0 14 31 1 0.256
48 361 0 37 0 6 31 0 0.49
49 361 0 38 2 5 32 1 0.274
50 361 0 39 0 14 31 1 0.267
51 361 0 40 0 11 33 1 0.288
52 361 0 41 0 2 36 0 0.227
53 361 0 42 2 1 31 0 0.302
54 361 0 43 1 20 31 1 0.262
55 361 0 44 2 13 36 1 0.372
56 361 0 45 0 1 32 0 0.249
57 361 0 46 2 17 35 1 0.285
58 361 0 47 0 11 31 1 0.245
59 361 0 48 2 3 32 0 0.185
60 361 0 49 2 20 35 1 0.227
61 361 0 50 1 1 34 0 0.234
62 361 0 51 2 4 33 0 0.24
63 361 0 52 1 12 36 0 0.227
64 361 0 53 2 5 37 0 0.331
65 361 0 54 0 19 31 1 0.13
66 361 0 55 2 19 32 1 0.244
67 361 0 56 2 14 33 1 0.187
68 361 0 57 2 4 31 0 0.215
69 361 0 58 0 6 31 1 0.242
70 361 0 59 2 19 33 1 0.348
71 361 0 60 0 6 34 0 0.209
72 361 0 61 2 8 31 0 0.309
73 361 0 62 0 4 31 0 0.311
74 361 1 0 1 2 34 0 0.255
75 361 1 1 0 17 36 1 0.336
76 361 1 2 0 4 33 0 0.326
77 361 1 3 1 17 31 1 0.19
78 361 1 4 2 16 32 1 0.344
79 361 1 5 0 7 31 0 0.207
80 361 1 6 1 7 36 0 0.311
81 361 1 7 2 18 32 1 0.298
82 361 1 8 2 9 33 0 0.321
83 361 1 9 1 7 31 0 0.297
84 361 1 10 2 8 31 0 0.321
85 361 1 11 2 18 32 1 0.232
86 361 1 12 1 12 33 1 0.369
87 361 1 13 0 9 33 1 0.39
88 361 1 14 2 19 34 0 0.153
89 361 1 15 1 14 33 1 0.391
90 361 1 16 2 5 34 0 0.235
91 361 1 17 2 12 36 0 0.265
92 361 1 18 1 9 33 1 0.316
93 361 1 19 1 20 34 1 0.21
94 361 1 20 2 20 33 1 0.3
95 361 1 21 0 12 32 1 0.452
96 361 1 22 2 9 31 0 0.327
97 361 1 23 1 7 32 0 0.286
98 361 1 24 2 14 33 1 0.373
99 361 1 25 2 3 36 0 0.232
100 361 1 26 1 10 32 1 0.352
101 361 1 27 2 12 32 1 0.405
102 361 1 28 0 14 34 1 0.232
103 361 1 29 1 6 32 0 0.206
104 361 1 30 2 3 31 0 0.314
105 361 1 31 0 20 32 1 0.186
106 361 1 32 0 1 47 0 0.301
107 361 1 33 0 19 31 1 0.213
108 361 1 34 0 20 36 1 0.173
109 361 1 35 1 16 33 0 0.199
110 361 1 36 0 16 31 1 0.172
111 361 1 37 0 7 32 1 0.2
112 361 1 38 2 19 31 1 0.196
113 361 1 39 2 6 35 0 0.257
114 361 1 40 2 16 31 1 0.262
115 361 1 41 0 2 33 0 0.237
116 361 1 42 2 15 33 1 0.198
117 361 1 43 0 11 36 1 0.207
118 361 1 44 1 19 33 1 0.265
119 361 1 45 0 16 36 1 0.223
120 361 1 46 1 15 34 1 0.294
121 361 1 47 2 1 31 0 0.254
122 361 1 48 1 16 31 1 0.232
123 361 1 49 2 7 33 1 0.158
124 361 1 50 1 13 32 1 0.116
125 361 1 51 0 19 31 1 0.307
126 361 1 52 0 2 32 0 0.218
127 361 1 53 0 10 31 0 0.336
128 361 1 54 2 17 31 1 0.148
129 361 1 55 0 4 37 1 0.223
130 361 1 56 0 8 37 1 0.166
131 361 1 57 1 17 31 1 0.195
132 361 1 58 2 11 33 0 0.248
133 361 1 59 0 2 31 1 0.162
134 361 1 60 1 6 31 0 0.298
135 361 1 61 2 19 31 1 0.243
136 361 1 62 2 6 32 0 0.253
137 361 2 0 2 13 32 0 0.318
138 361 2 1 0 9 31 1 0.245
139 361 2 2 1 5 31 0 0.27
140 361 2 3 0 20 31 1 0.231
141 361 2 4 0 10 31 1 0.146
142 361 2 5 2 20 32 1 0.239
143 361 2 6 1 10 31 1 0.311
144 361 2 7 2 0 38 0 0.166
145 361 2 8 1 16 34 1 0.241
146 361 2 9 2 17 32 1 0.219
147 361 2 10 0 7 35 1 0.212
148 361 2 11 2 10 32 1 0.219
149 361 2 12 0 5 32 0 0.31
150 361 2 13 2 2 33 0 0.3
151 361 2 14 1 2 32 0 0.287
152 361 2 15 0 2 31 0 0.264
153 361 2 16 1 19 32 0 0.273
154 361 2 17 0 18 35 1 0.258
155 361 2 18 0 3 31 0 0.3
156 361 2 19 1 0 32 0 0.258
157 361 2 20 2 11 33 0 0.299
158 361 2 21 2 1 35 0 0.209
159 361 2 22 0 15 31 1 0.198
160 361 2 23 1 17 40 1 0.221
161 361 2 24 1 18 39 1 0.239
162 361 2 25 0 8 32 0 0.425
163 361 2 26 1 4 33 0 0.199
164 361 2 27 2 19 32 1 0.178
165 361 2 28 0 12 31 1 0.239
166 361 2 29 1 7 33 0 0.2
167 361 2 30 2 18 32 1 0.195
168 361 2 31 0 3 33 0 0.27
169 361 2 32 1 4 32 1 0.199
170 361 2 33 0 3 32 0 0.322
171 361 2 34 1 12 34 1 0.392
172 361 2 35 1 5 34 0 0.188
173 361 2 36 2 2 33 0 0.247
174 361 2 37 2 9 34 0 0.287
175 361 2 38 0 15 31 1 0.2
176 361 2 39 1 4 31 0 0.259
177 361 2 40 2 2 31 0 0.269
178 361 2 41 1 16 33 1 0.246
179 361 2 42 2 10 31 0 0.271
180 361 2 43 2 19 31 1 0.281
181 361 2 44 0 2 33 0 0.241
182 361 2 45 1 15 35 1 0.313
183 361 2 46 0 11 33 1 0.24
184 361 2 47 2 2 33 0 0.234
185 361 2 48 2 15 32 1 0.356
186 361 2 49 0 15 33 1 0.361
187 361 2 50 0 13 31 1 0.239
188 361 2 51 1 4 34 0 0.296
189 361 2 52 1 18 33 1 0.191
190 361 2 53 0 17 33 1 0.297
191 361 2 54 0 8 37 1 0.271
192 361 2 55 1 19 31 0 0.184
193 361 2 56 1 10 35 0 0.209
194 361 2 57 1 2 32 1 0.189
195 361 2 58 2 12 33 0 0.232
196 361 2 59 1 15 36 1 0.287
197 361 2 60 2 20 33 1 0.279
198 361 2 61 1 20 32 1 0.24
199 361 2 62 2 0 33 0 0.249
200 361 3 0 0 3 34 0 0.258
201 361 3 1 1 8 32 1 0.282
202 361 3 2 2 7 31 1 0.259
203 361 3 3 2 3 32 0 0.366
204 361 3 4 0 3 34 0 0.29
205 361 3 5 0 18 31 1 0.266
206 361 3 6 1 12 35 0 0.257
207 361 3 7 2 8 32 1 0.251
208 361 3 8 2 14 36 1 0.258
209 361 3 9 2 11 31 1 0.379
210 361 3 10 1 0 32 0 0.192
211 361 3 11 0 8 35 1 0.234
212 361 3 12 2 16 37 0 0.177
213 361 3 13 1 18 33 1 0.317
214 361 3 14 2 9 31 0 0.277
215 361 3 15 1 3 34 0 0.266
216 361 3 16 0 13 34 1 0.193
217 361 3 17 2 0 34 0 0.284
218 361 3 18 1 12 31 1 0.373
219 361 3 19 1 15 31 1 0.267
220 361 3 20 1 11 36 1 0.252
221 361 3 21 0 19 37 1 0.323
222 361 3 22 2 11 32 1 0.554
223 361 3 23 2 14 32 1 0.328
224 361 3 24 2 4 32 0 0.188
225 361 3 25 0 7 31 1 0.2
226 361 3 26 2 4 31 0 0.276
227 361 3 27 2 12 31 1 0.253
228 361 3 28 0 0 31 0 0.245
229 361 3 29 0 12 33 1 0.239
230 361 3 30 0 11 32 1 0.217
231 361 3 31 2 0 37 0 0.192
232 361 3 32 1 1 31 0 0.363
233 361 3 33 1 3 31 0 0.289
234 361 3 34 2 0 36 0 0.263
235 361 3 35 2 18 32 1 0.272
236 361 3 36 0 11 31 1 0.249
237 361 3 37 0 18 36 1 0.24
238 361 3 38 0 11 32 1 0.298
239 361 3 39 1 9 38 1 0.511
240 361 3 40 2 10 33 0 0.111
241 361 3 41 1 19 31 1 0.19
242 361 3 42 0 7 31 0 0.426
243 361 3 43 1 11 32 1 0.222
244 361 3 44 2 20 34 1 0.231
245 361 3 45 1 12 31 1 0.354
246 361 3 46 0 9 32 1 0.343
247 361 3 47 1 13 33 0 0.172
248 361 3 48 0 3 35 1 0.119
249 361 3 49 1 9 33 0 0.34
250 361 3 50 0 20 33 1 0.153
251 361 3 51 1 6 31 0 0.229
252 361 3 52 1 18 33 1 0.174
253 361 3 53 2 7 33 0 0.362
254 361 3 54 2 18 35 1 0.173
255 361 3 55 0 14 33 1 0.402
256 361 3 56 0 20 33 1 0.278
257 361 3 57 0 20 33 1 0.222
258 361 3 58 1 2 34 0 0.231
259 361 3 59 1 2 32 1 0.225
260 361 3 60 1 14 35 0 0.132
261 361 3 61 1 5 31 0 0.32
262 361 3 62 2 17 33 1 0.246
263 361 4 0 2 10 31 0 0.271
264 361 4 1 1 3 34 0 0.246
265 361 4 2 1 6 33 0 0.224
266 361 4 3 0 14 32 1 0.202
267 361 4 4 1 0 37 0 0.195
268 361 4 5 1 9 31 1 0.351
269 361 4 6 1 5 31 0 0.085
270 361 4 7 1 17 35 1 0.259
271 361 4 8 2 16 41 1 0.407
272 361 4 9 0 15 34 1 0.218
273 361 4 10 0 4 33 0 0.235
274 361 4 11 0 17 31 1 0.271
275 361 4 12 0 17 32 1 0.264
276 361 4 13 2 4 34 0 0.223
277 361 4 14 2 8 31 1 0.198
278 361 4 15 0 5 33 1 0.174
279 361 4 16 0 12 36 1 0.44
280 361 4 17 0 11 31 0 0.235
281 361 4 18 1 9 32 0 0.261
282 361 4 19 1 4 32 0 0.351
283 361 4 20 0 10 32 0 0.356
284 361 4 21 0 17 35 1 0.232
285 361 4 22 0 16 32 1 0.226
286 361 4 23 1 0 31 0 0.333
287 361 4 24 0 12 33 0 0.227
288 361 4 25 0 13 31 1 0.185
289 361 4 26 2 14 33 1 0.388
290 361 4 27 1 8 32 1 0.408
291 361 4 28 1 4 32 0 0.17
292 361 4 29 1 6 31 0 0.231
293 361 4 30 1 7 31 0 0.306
294 361 4 31 1 0 31 0 0.298
295 361 4 32 2 18 31 1 0.33
296 361 4 33 2 8 33 1 0.224
297 361 4 34 0 8 32 0 0.154
298 361 4 35 2 13 32 1 0.511
299 361 4 36 1 9 31 1 0.304
300 361 4 37 0 5 31 0 0.168
301 361 4 38 0 2 34 0 0.228
302 361 4 39 0 14 31 1 0.271
303 361 4 40 1 6 33 0 0.231
304 361 4 41 0 4 32 1 0.177
305 361 4 42 1 1 43 0 0.099
306 361 4 43 1 12 32 1 0.37
307 361 4 44 2 7 36 0 0.26
308 361 4 45 1 20 31 1 0.254
309 361 4 46 1 11 31 1 0.328
310 361 4 47 2 2 33 0 0.27
311 361 4 48 2 3 31 0 0.28
312 361 4 49 0 7 32 0 0.496
313 361 4 50 1 5 38 0 0.333
314 361 4 51 2 15 32 1 0.324
315 361 4 52 2 6 31 0 0.235
316 361 4 53 1 11 34 1 0.34
317 361 4 54 1 16 34 1 0.457
318 361 4 55 1 20 34 1 0.314
319 361 4 56 1 18 31 1 0.322
320 361 4 57 1 14 34 1 0.328
321 361 4 58 2 13 33 1 0.446
322 361 4 59 1 18 36 1 0.319
323 361 4 60 0 12 34 1 0.372
324 361 4 61 1 8 31 0 0.378
325 361 4 62 2 12 35 0 0.43
326 361 5 0 2 10 32 0 0.343
327 361 5 1 1 15 31 1 0.254
328 361 5 2 1 19 31 0 0.296
329 361 5 3 1 15 31 1 0.241
330 361 5 4 0 19 35 1 0.146
331 361 5 5 2 6 35 0 0.364
332 361 5 6 2 13 31 0 0.449
333 361 5 7 2 2 38 0 0.32
334 361 5 8 0 10 34 1 0.262
335 361 5 9 2 17 31 1 0.479
336 361 5 10 0 7 35 1 0.239
337 361 5 11 1 20 40 1 0.324
338 361 5 12 1 1 37 0 0.264
339 361 5 13 2 0 31 0 0.338
340 361 5 14 2 5 31 0 0.327
341 361 5 15 0 20 33 1 0.285
342 361 5 16 2 4 32 0 0.325
343 361 5 17 2 17 40 1 0.296
344 361 5 18 2 14 34 1 0.222
345 361 5 19 0 6 33 0 0.308
346 361 5 20 1 16 33 1 0.235
347 361 5 21 0 0 31 0 0.257
348 361 5 22 1 5 31 0 0.379
349 361 5 23 2 6 31 0 0.384
350 361 5 24 1 13 31 1 0.278
351 361 5 25 1 10 35 1 0.301
352 361 5 26 2 15 41 1 0.362
353 361 5 27 0 12 33 1 0.255
354 361 5 28 0 7 32 0 0.344
355 361 5 29 1 17 33 1 0.259
356 361 5 30 2 1 31 0 0.277
357 361 5 31 0 0 33 0 0.333
358 361 5 32 0 14 32 1 0.244
359 361 5 33 0 1 32 0 0.296
360 361 5 34 1 7 34 0 0.348
361 361 5 35 1 13 33 1 0.289
362 361 5 36 0 6 31 0 0.33
363 361 5 37 0 13 32 1 0.353
364 361 5 38 1 14 34 0 0.229
365 361 5 39 2 8 31 1 0.256
366 361 5 40 1 10 33 1 0.409
367 361 5 41 0 5 31 0 0.409
368 361 5 42 0 14 31 1 0.302
369 361 5 43 1 8 33 0 0.485
370 361 5 44 2 2 34 0 0.356
371 361 5 45 0 1 36 0 0.248
372 361 5 46 2 0 32 0 0.401
373 361 5 47 2 8 32 1 0.405
374 361 5 48 2 7 32 0 0.249
375 361 5 49 1 13 31 1 0.339
376 361 5 50 1 10 32 1 0.345
377 361 5 51 0 4 31 0 0.4
378 361 5 52 2 5 33 0 0.276
379 361 5 53 2 5 31 0 0.301
380 361 5 54 0 5 31 0 0.357
381 361 5 55 0 1 32 0 0.267
382 361 5 56 1 13 31 1 0.292
383 361 5 57 2 14 32 1 0.332
384 361 5 58 0 16 36 1 0.277
385 361 5 59 1 6 32 0 0.206
386 361 5 60 1 1 31 0 0.281
387 361 5 61 0 6 38 0 0.286
388 361 5 62 1 1 31 0 0.343
389 361 6 0 2 15 32 1 0.436
390 361 6 1 2 13 32 0 0.487
391 361 6 2 2 12 31 1 0.471
392 361 6 3 0 17 31 1 0.361
393 361 6 4 2 3 34 0 0.28
394 361 6 5 0 10 32 0 0.353
395 361 6 6 1 9 31 0 0.327
396 361 6 7 2 3 33 0 0.318
397 361 6 8 2 16 31 1 0.293
398 361 6 9 2 11 35 1 0.358
399 361 6 10 2 6 31 0 0.413
400 361 6 11 2 16 31 1 0.353
401 361 6 12 0 10 33 1 0.31
402 361 6 13 0 18 35 1 0.313
403 361 6 14 1 5 31 0 0.177
404 361 6 15 0 17 32 1 0.205
405 361 6 16 2 20 31 0 0.212
406 361 6 17 2 9 35 0 0.187
407 361 6 18 2 13 32 1 0.182
408 361 6 19 0 19 33 1 0.14
409 361 6 20 0 1 31 0 0.282
410 361 6 21 2 12 31 0 0.355
411 361 6 22 2 15 32 0 0.456
412 361 6 23 1 10 32 1 0.427
413 361 6 24 2 9 32 0 0.494
414 361 6 25 1 6 34 0 0.334
415 361 6 26 0 16 31 1 0.229
416 361 6 27 1 14 33 1 0.335
417 361 6 28 0 4 34 0 0.308
418 361 6 29 1 8 31 0 0.524
419 361 6 30 0 0 32 0 0.316
420 361 6 31 1 17 31 1 0.196
421 361 6 32 0 1 31 0 0.352
422 361 6 33 1 3 31 0 0.322
423 361 6 34 1 19 31 1 0.266
424 361 6 35 2 14 32 1 0.595
425 361 6 36 0 17 32 1 0.32
426 361 6 37 0 13 31 1 0.296
427 361 6 38 1 3 31 0 0.304
428 361 6 39 0 16 38 1 0.212
429 361 6 40 1 17 31 1 0.336
430 361 6 41 2 0 36 0 0.356
431 361 6 42 2 5 31 0 0.33
432 361 6 43 2 12 36 1 0.302
433 361 6 44 1 2 31 0 0.309
434 361 6 45 1 20 34 1 0.257
435 361 6 46 2 16 36 1 0.296
436 361 6 47 1 0 38 0 0.25
437 361 6 48 2 19 32 1 0.29
438 361 6 49 1 19 37 1 0.295
439 361 6 50 2 11 31 0 0.301
440 361 6 51 2 4 33 1 0.196
441 361 6 52 0 9 32 0 0.442
442 361 6 53 2 11 31 1 0.825
443 361 6 54 1 8 35 1 0.572
444 361 6 55 2 5 39 0 0.358
445 361 6 56 0 5 38 0 0.31
446 361 6 57 0 6 31 0 0.286
447 361 6 58 2 7 33 0 0.374
448 361 6 59 1 14 32 1 0.251
449 361 6 60 0 13 32 1 0.323
450 361 6 61 0 15 38 1 0.224
451 361 6 62 2 10 33 0 0.276
452 361 7 0 0 3 36 0 0.342
453 361 7 1 2 9 38 0 0.313
454 361 7 2 0 16 33 1 0.208
455 361 7 3 1 7 31 0 0.312
456 361 7 4 1 14 33 1 0.527
457 361 7 5 1 12 34 1 0.504
458 361 7 6 0 18 31 1 0.47
459 361 7 7 2 17 33 1 0.343
460 361 7 8 0 8 33 0 0.283
461 361 7 9 1 1 37 0 0.369
462 361 7 10 0 2 32 0 0.29
463 361 7 11 0 18 31 1 0.379
464 361 7 12 0 18 35 1 0.286
465 361 7 13 1 3 31 0 0.343
466 361 7 14 2 3 32 0 0.302
467 361 7 15 1 15 32 1 0.341
468 361 7 16 2 17 32 1 0.3
469 361 7 17 1 8 32 0 0.291
470 361 7 18 0 0 39 0 0.343
471 361 7 19 0 15 32 1 0.238
472 361 7 20 1 16 31 1 0.373
473 361 7 21 0 9 31 1 0.314
474 361 7 22 2 20 32 0 0.264
475 361 7 23 0 10 31 1 0.562
476 361 7 24 0 10 33 0 0.542
477 361 7 25 1 16 32 1 0.301
478 361 7 26 0 0 31 0 0.341
479 361 7 27 2 18 37 1 0.353
480 361 7 28 2 16 31 1 0.263
481 361 7 29 1 14 34 1 0.271
482 361 7 30 1 9 33 0 0.439
483 361 7 31 1 0 31 0 0.362
484 361 7 32 0 0 34 0 0.287
485 361 7 33 2 18 33 1 0.246
486 361 7 34 1 3 34 0 0.303
487 361 7 35 2 6 36 0 0.244
488 361 7 36 1 2 32 0 0.334
489 361 7 37 1 8 34 1 0.355
490 361 7 38 1 19 34 0 0.344
491 361 7 39 0 15 31 1 0.399
492 361 7 40 2 1 31 0 0.361
493 361 7 41 1 13 33 1 0.398
494 361 7 42 0 4 34 0 0.401
495 361 7 43 2 13 32 1 0.277
496 361 7 44 1 10 33 1 0.317
497 361 7 45 1 4 32 0 0.24
498 361 7 46 2 1 31 0 0.378
499 361 7 47 1 2 32 0 0.345
500 361 7 48 0 9 31 1 0.32
501 361 7 49 0 0 33 0 0.183
502 361 7 50 0 20 38 1 0.286
503 361 7 51 2 4 31 0 0.343
504 361 7 52 1 18 31 1 0.333
505 361 7 53 1 11 32 1 0.418
506 361 7 54 2 7 37 0 0.237
507 361 7 55 1 11 31 1 0.296
508 361 7 56 1 5 33 0 0.22
509 361 7 57 0 19 32 1 0.225
510 361 7 58 1 11 31 1 0.396
511 361 7 59 2 10 33 0 0.479
512 361 7 60 1 4 31 0 0.352
513 361 7 61 2 8 31 0 0.288
514 361 7 62 1 1 33 0 0.264
515 362 0 0 2 2 34 0 1.052
516 362 0 1 0 2 31 0 1.637
517 362 0 2 1 14 34 1 0.566
518 362 0 3 0 18 31 1 0.301
519 362 0 4 1 8 33 1 0.352
520 362 0 5 2 8 31 0 0.513
521 362 0 6 1 19 33 1 0.334
522 362 0 7 0 19 32 1 0.292
523 362 0 8 2 10 31 0 0.389
524 362 0 9 1 18 33 1 0.26
525 362 0 10 0 14 32 0 0.264
526 362 0 11 0 13 32 1 0.8
527 362 0 12 1 16 38 1 0.525
528 362 0 13 0 20 32 1 0.407
529 362 0 14 1 6 37 0 1.028
530 362 0 15 0 9 32 0 0.701
531 362 0 16 0 8 31 0 0.502
532 362 0 17 2 12 31 0 0.645
533 362 0 18 1 3 34 1 0.328
534 362 0 19 1 20 31 1 0.606
535 362 0 20 1 13 32 0 0.698
536 362 0 21 0 10 33 0 0.591
537 362 0 22 0 17 36 0 1.145
538 362 0 23 1 5 34 0 0.586
539 362 0 24 2 6 32 0 0.467
540 362 0 25 2 3 31 0 0.501
541 362 0 26 2 14 35 0 0.641
542 362 0 27 0 4 33 0 0.667
543 362 0 28 2 20 35 1 0.386
544 362 0 29 1 17 31 1 0.327
545 362 0 30 2 11 44 0 0.965
546 362 0 31 2 15 33 1 0.702
547 362 0 32 2 18 33 1 0.257
548 362 0 33 2 4 31 0 0.389
549 362 0 34 2 9 32 0 0.408
550 362 0 35 2 19 33 1 0.313
551 362 0 36 0 16 33 1 0.538
552 362 0 37 2 5 31 0 0.39
553 362 0 38 2 1 35 0 0.381
554 362 0 39 0 3 36 0 0.286
555 362 0 40 2 0 32 0 0.274
556 362 0 41 1 9 38 1 0.292
557 362 0 42 0 6 33 0 0.138
558 362 0 43 0 12 33 0 0.326
559 362 0 44 1 11 31 1 1.196
560 362 0 45 0 15 31 1 0.402
561 362 0 46 1 12 31 1 0.333
562 362 0 47 2 13 32 1 0.544
563 362 0 48 0 0 37 0 0.454
564 362 0 49 1 4 33 0 1.077
565 362 0 50 0 1 31 0 0.317
566 362 0 51 1 7 31 0 0.462
567 362 0 52 0 7 33 0 0.442
568 362 0 53 0 5 31 0 0.438
569 362 0 54 1 15 31 1 0.469
570 362 0 55 2 16 34 1 0.452
571 362 0 56 1 1 33 0 0.421
572 362 0 57 1 0 31 0 0.326
573 362 0 58 1 10 34 0 0.553
574 362 0 59 2 17 34 1 0.467
575 362 0 60 2 7 31 0 0.335
576 362 0 61 1 2 31 0 0.516
577 362 0 62 0 11 33 0 0.65
578 364 0 0 1 3 31 0 0.515
579 364 0 1 0 6 31 1 0.574
580 364 0 2 0 4 31 1 0.572
581 364 0 3 1 1 32 0 0.506
582 364 0 4 0 1 35 1 0.625
583 364 0 5 0 1 31 1 0.464
584 364 0 6 0 9 34 1 0.367
585 364 0 7 0 0 31 0 0.615
586 364 0 8 1 3 32 0 0.677
587 364 0 9 0 8 32 1 0.428
588 364 0 10 0 5 32 1 0.729
589 364 0 11 0 5 31 1 0.452
590 364 0 12 1 7 31 1 0.198
591 364 0 13 1 2 36 1 0.193
592 364 0 14 1 9 33 1 0.427
593 364 0 15 1 0 32 0 0.464
594 364 0 16 0 9 33 1 0.307
595 364 0 17 1 9 31 1 0.381
596 364 0 18 1 4 34 0 0.434
597 364 0 19 1 4 32 1 0.246
598 364 0 20 0 7 37 1 0.638
599 364 0 21 0 2 34 1 0.329
600 364 0 22 0 7 31 1 0.434
601 364 0 23 0 2 33 1 0.278
602 364 0 24 1 6 32 1 0.592
603 364 0 25 0 4 41 1 0.618
604 364 0 26 1 5 34 0 0.471
605 364 0 27 1 8 34 1 0.246
606 364 0 28 1 6 33 1 0.481
607 364 0 29 0 9 32 1 0.259
608 364 0 30 1 7 33 1 0.221
609 364 0 31 0 1 31 1 0.202
610 364 0 32 1 3 33 1 0.646
611 364 0 33 1 0 34 0 0.514
612 364 0 34 0 7 31 1 0.227
613 364 0 35 0 2 33 0 0.542
614 364 0 36 1 1 35 0 0.477
615 364 0 37 1 8 34 1 0.507
616 364 0 38 1 8 33 1 0.301
617 364 0 39 0 7 31 1 0.278
618 364 0 40 1 4 31 0 0.465
619 364 0 41 1 8 34 1 0.34
620 364 0 42 0 2 34 0 0.395
621 364 0 43 0 3 32 1 0.192
622 364 0 44 1 7 34 1 0.716
623 364 0 45 0 2 33 1 0.31
624 364 0 46 0 6 33 1 0.427
625 364 0 47 1 1 31 0 0.352
626 364 0 48 0 7 33 1 0.391
627 364 0 49 0 0 32 0 0.589
628 364 0 50 1 2 31 0 0.493
629 364 0 51 1 3 34 0 0.382
630 364 0 52 1 7 33 1 0.547
631 364 0 53 0 6 33 1 0.291
632 364 0 54 1 2 32 1 0.349
633 364 0 55 0 1 33 0 0.403
634 364 0 56 0 2 36 1 0.278
635 364 0 57 1 9 34 1 0.511
636 364 0 58 0 9 32 1 0.416
637 364 0 59 0 6 32 1 0.405
638 364 1 0 0 5 35 1 0.531
639 364 1 1 1 4 37 1 0.257
640 364 1 2 1 9 32 1 0.38
641 364 1 3 0 1 34 1 0.273
642 364 1 4 0 8 32 1 0.425
643 364 1 5 0 2 31 0 0.463
644 364 1 6 1 0 31 0 0.467
645 364 1 7 0 9 32 1 0.246
646 364 1 8 0 4 31 0 0.77
647 364 1 9 0 2 32 1 0.251
648 364 1 10 0 1 34 0 0.42
649 364 1 11 0 6 31 1 0.378
650 364 1 12 1 3 35 0 0.415
651 364 1 13 0 3 35 1 0.178
652 364 1 14 1 2 32 0 0.448
653 364 1 15 1 1 34 0 0.37
654 364 1 16 1 3 34 0 0.28
655 364 1 17 0 4 34 1 0.705
656 364 1 18 0 9 31 0 0.301
657 364 1 19 1 5 34 0 0.501
658 364 1 20 1 3 31 0 0.423
659 364 1 21 0 1 34 0 0.347
660 364 1 22 1 0 36 0 0.352
661 364 1 23 0 1 31 0 0.28
662 364 1 24 1 9 32 1 0.418
663 364 1 25 0 0 32 0 0.439
664 364 1 26 1 8 31 1 0.524
665 364 1 27 1 8 31 1 0.383
666 364 1 28 1 0 32 0 0.341
667 364 1 29 0 4 31 0 1.102
668 364 1 30 0 2 31 0 0.411
669 364 1 31 1 3 37 0 0.301
670 364 1 32 0 3 32 0 0.279
671 364 1 33 1 9 31 1 0.385
672 364 1 34 1 7 33 1 0.311
673 364 1 35 1 0 38 0 0.524
674 364 1 36 1 6 31 1 0.83
675 364 1 37 0 2 37 0 0.482
676 364 1 38 0 3 35 0 0.403
677 364 1 39 0 8 33 1 0.264
678 364 1 40 0 1 38 0 0.511
679 364 1 41 1 4 31 0 0.401
680 364 1 42 1 5 31 0 0.327
681 364 1 43 0 5 34 1 0.414
682 364 1 44 1 9 32 1 0.467
683 364 1 45 1 3 31 0 0.391
684 364 1 46 1 6 32 0 0.366
685 364 1 47 1 9 34 1 0.291
686 364 1 48 1 0 37 0 0.474
687 364 1 49 1 2 33 0 0.38
688 364 1 50 1 2 33 0 0.322
689 364 1 51 1 4 31 0 0.442
690 364 1 52 1 8 31 0 0.287
691 364 1 53 0 0 31 0 0.458
692 364 1 54 1 4 32 0 0.382
693 364 1 55 0 6 31 1 0.485
694 364 1 56 0 4 31 0 0.936
695 364 1 57 1 7 32 0 0.411
696 364 1 58 1 5 32 0 0.608
697 364 1 59 1 1 31 0 0.59
698 364 2 0 0 3 31 1 1.702
699 364 2 1 1 2 32 0 0.266
700 364 2 2 1 7 31 1 0.789
701 364 2 3 1 6 31 1 0.749
702 364 2 4 0 5 33 1 0.502
703 364 2 5 1 5 33 1 0.232
704 364 2 6 0 5 32 1 0.323
705 364 2 7 0 9 38 1 0.455
706 364 2 8 1 6 31 1 0.299
707 364 2 9 0 0 31 1 0.229
708 364 2 10 1 3 36 0 0.333
709 364 2 11 0 6 31 1 0.406
710 364 2 12 0 0 34 0 0.555
711 364 2 13 1 0 31 0 0.444
712 364 2 14 1 1 31 0 0.32
713 364 2 15 0 3 33 1 0.664
714 364 2 16 1 6 31 1 0.693
715 364 2 17 0 9 33 1 0.271
716 364 2 18 0 1 31 1 0.266
717 364 2 19 1 4 31 0 0.405
718 364 2 20 1 8 33 1 0.602
719 364 2 21 0 7 32 1 0.473
720 364 2 22 0 8 32 1 0.204
721 364 2 23 1 6 31 1 1.002
722 364 2 24 0 6 32 1 0.394
723 364 2 25 1 7 32 1 0.256
724 364 2 26 1 1 31 0 0.46
725 364 2 27 1 3 33 0 0.334
726 364 2 28 0 4 32 1 0.855
727 364 2 29 1 4 31 0 0.317
728 364 2 30 1 4 31 0 0.326
729 364 2 31 0 2 36 0 0.38
730 364 2 32 0 5 31 1 0.627
731 364 2 33 0 5 33 1 0.512
732 364 2 34 0 6 31 1 0.498
733 364 2 35 0 8 32 1 0.372
734 364 2 36 1 2 35 0 0.521
735 364 2 37 1 2 31 0 0.556
736 364 2 38 1 5 32 0 0.444
737 364 2 39 0 0 32 0 0.56
738 364 2 40 0 6 31 1 0.449
739 364 2 41 0 7 32 1 0.373
740 364 2 42 1 8 35 1 0.266
741 364 2 43 0 2 32 1 0.692
742 364 2 44 1 3 33 0 0.382
743 364 2 45 1 4 31 0 0.229
744 364 2 46 1 8 34 1 0.33
745 364 2 47 0 4 31 1 0.451
746 364 2 48 1 6 31 0 0.327
747 364 2 49 0 9 34 1 0.463
748 364 2 50 1 4 32 0 0.562
749 364 2 51 0 1 36 0 0.32
750 364 2 52 0 0 36 0 0.246
751 364 2 53 0 8 32 1 0.337
752 364 2 54 1 7 32 1 0.313
753 364 2 55 1 5 36 1 0.272
754 364 2 56 1 0 31 0 0.411
755 364 2 57 0 2 31 1 0.257
756 364 2 58 1 0 39 0 0.424
757 364 2 59 1 9 31 1 0.509
758 364 3 0 0 7 32 1 0.507
759 364 3 1 0 7 33 1 0.317
760 364 3 2 0 7 31 1 0.31
761 364 3 3 0 0 31 1 0.351
762 364 3 4 1 5 31 0 0.808
763 364 3 5 1 0 33 0 0.526
764 364 3 6 0 7 31 1 0.417
765 364 3 7 1 4 39 0 0.514
766 364 3 8 0 1 33 0 0.531
767 364 3 9 0 0 37 0 0.577
768 364 3 10 0 5 31 1 0.593
769 364 3 11 0 4 35 1 0.509
770 364 3 12 0 5 36 1 0.605
771 364 3 13 0 9 35 1 0.362
772 364 3 14 1 8 35 1 0.287
773 364 3 15 0 8 32 1 0.201
774 364 3 16 0 4 33 1 0.245
775 364 3 17 1 5 33 0 0.576
776 364 3 18 0 2 31 0 0.848
777 364 3 19 0 7 32 1 0.341
778 364 3 20 1 2 31 0 0.574
779 364 3 21 0 8 50 1 0.499
780 364 3 22 0 4 32 1 0.389
781 364 3 23 0 8 33 1 0.459
782 364 3 24 0 3 33 1 0.27
783 364 3 25 1 3 32 0 0.601
784 364 3 26 0 9 31 1 0.488
785 364 3 27 1 0 34 0 0.473
786 364 3 28 0 1 31 0 0.525
787 364 3 29 0 8 32 1 0.542
788 364 3 30 1 4 31 0 0.544
789 364 3 31 1 9 32 1 0.512
790 364 3 32 0 4 31 0 1.043
791 364 3 33 1 1 35 0 0.527
792 364 3 34 1 2 31 0 0.337
793 364 3 35 1 7 31 1 0.714
794 364 3 36 0 8 33 1 0.548
795 364 3 37 0 4 33 0 0.595
796 364 3 38 0 5 33 0 0.641
797 364 3 39 0 0 37 0 0.716
798 364 3 40 0 7 34 1 0.405
799 364 3 41 1 3 31 0 0.332
800 364 3 42 0 9 34 1 0.37
801 364 3 43 0 8 39 1 0.341
802 364 3 44 0 1 31 0 0.478
803 364 3 45 0 0 31 0 0.497
804 364 3 46 1 4 34 0 0.386
805 364 3 47 1 7 36 1 0.646
806 364 3 48 1 0 33 0 0.355
807 364 3 49 1 2 32 0 0.33
808 364 3 50 0 7 31 1 0.323
809 364 3 51 1 8 33 1 0.346
810 364 3 52 0 3 34 0 0.704
811 364 3 53 0 1 32 0 0.363
812 364 3 54 1 3 33 0 0.29
813 364 3 55 1 1 35 0 0.282
814 364 3 56 0 1 38 0 0.288
815 364 3 57 0 0 35 0 0.296
816 364 3 58 0 4 34 0 0.592
817 364 3 59 0 5 31 1 0.56
818 364 4 0 1 5 35 0 0.472
819 364 4 1 0 4 31 0 1.068
820 364 4 2 0 8 32 1 0.394
821 364 4 3 0 9 32 1 0.56
822 364 4 4 0 4 36 1 0.286
823 364 4 5 1 8 31 0 0.264
824 364 4 6 1 4 31 1 0.163
825 364 4 7 1 8 38 1 0.238
826 364 4 8 1 5 34 1 0.248
827 364 4 9 1 2 34 0 0.786
828 364 4 10 1 0 31 0 0.491
829 364 4 11 1 5 37 0 0.331
830 364 4 12 1 5 32 1 0.467
831 364 4 13 1 2 34 0 0.821
832 364 4 14 1 7 35 1 0.394
833 364 4 15 1 0 38 0 0.413
834 364 4 16 0 6 33 1 0.529
835 364 4 17 1 4 31 0 0.355
836 364 4 18 0 9 34 1 0.217
837 364 4 19 1 9 31 1 0.406
838 364 4 20 1 8 36 1 0.217
839 364 4 21 0 8 32 1 0.182
840 364 4 22 0 5 32 1 0.195
841 364 4 23 0 7 35 1 0.19
842 364 4 24 1 3 31 1 0.188
843 364 4 25 0 3 32 1 0.762
844 364 4 26 1 5 31 1 0.915
845 364 4 27 1 9 34 1 0.501
846 364 4 28 0 8 32 1 0.295
847 364 4 29 1 1 32 0 0.545
848 364 4 30 0 5 34 1 0.592
849 364 4 31 1 5 31 1 0.319
850 364 4 32 0 3 31 1 0.297
851 364 4 33 1 6 31 1 0.562
852 364 4 34 0 0 32 0 0.578
853 364 4 35 1 7 32 1 0.658
854 364 4 36 1 8 32 1 0.334
855 364 4 37 0 1 31 0 0.63
856 364 4 38 0 8 31 1 0.484
857 364 4 39 0 2 33 0 0.535
858 364 4 40 1 3 31 0 0.36
859 364 4 41 1 5 33 0 0.319
860 364 4 42 1 6 31 1 1.318
861 364 4 43 0 0 33 0 0.427
862 364 4 44 1 1 31 0 0.416
863 364 4 45 0 7 31 1 0.342
864 364 4 46 1 5 32 0 0.329
865 364 4 47 0 3 31 0 0.466
866 364 4 48 0 0 35 0 0.308
867 364 4 49 1 2 31 0 0.254
868 364 4 50 1 6 34 0 0.44
869 364 4 51 1 8 31 1 0.285
870 364 4 52 1 7 34 1 0.246
871 364 4 53 1 1 32 0 0.401
872 364 4 54 0 8 33 1 0.262
873 364 4 55 1 9 32 1 0.208
874 364 4 56 0 3 31 0 0.446
875 364 4 57 1 6 35 1 0.592
876 364 4 58 0 6 32 1 0.479
877 364 4 59 0 6 32 1 0.226
878 364 5 0 1 2 35 0 0.396
879 364 5 1 0 9 34 1 0.177
880 364 5 2 1 6 31 0 0.287
881 364 5 3 1 9 39 1 0.229
882 364 5 4 1 5 33 0 0.576
883 364 5 5 0 7 31 1 0.144
884 364 5 6 1 3 33 1 0.174
885 364 5 7 1 6 32 0 0.669
886 364 5 8 1 4 34 0 0.472
887 364 5 9 1 3 36 0 0.505
888 364 5 10 0 6 35 1 0.697
889 364 5 11 0 3 33 0 0.596
890 364 5 12 0 6 31 1 0.259
891 364 5 13 0 9 31 1 0.446
892 364 5 14 1 7 31 1 0.611
893 364 5 15 1 6 41 1 0.364
894 364 5 16 1 6 31 1 0.515
895 364 5 17 1 3 33 0 0.484
896 364 5 18 1 8 35 1 0.325
897 364 5 19 1 7 32 1 0.349
898 364 5 20 1 1 32 1 0.181
899 364 5 21 0 4 32 0 0.722
900 364 5 22 0 9 33 1 0.396
901 364 5 23 1 6 31 0 0.275
902 364 5 24 0 3 31 0 0.462
903 364 5 25 0 6 32 1 0.641
904 364 5 26 0 3 32 0 1.342
905 364 5 27 0 6 36 1 0.608
906 364 5 28 1 4 32 0 0.413
907 364 5 29 1 5 36 0 0.528
908 364 5 30 0 3 31 0 0.546
909 364 5 31 1 1 36 0 0.432
910 364 5 32 1 4 34 0 0.323
911 364 5 33 0 9 31 1 0.413
912 364 5 34 1 8 31 1 0.77
913 364 5 35 0 0 31 0 0.38
914 364 5 36 1 6 32 1 0.674
915 364 5 37 1 2 31 0 0.447
916 364 5 38 1 7 38 1 0.255
917 364 5 39 1 5 32 0 0.516
918 364 5 40 0 8 31 1 0.485
919 364 5 41 0 2 32 0 0.616
920 364 5 42 0 7 31 1 0.423
921 364 5 43 1 3 31 0 0.333
922 364 5 44 0 8 31 1 0.325
923 364 5 45 0 3 34 0 0.493
924 364 5 46 1 0 31 0 0.336
925 364 5 47 0 5 32 1 0.488
926 364 5 48 1 1 31 0 0.267
927 364 5 49 0 3 32 1 0.39
928 364 5 50 0 9 31 1 0.413
929 364 5 51 0 5 32 1 0.61
930 364 5 52 1 6 32 0 0.48
931 364 5 53 0 9 38 1 0.239
932 364 5 54 1 4 32 0 0.283
933 364 5 55 0 6 32 1 0.277
934 364 5 56 0 9 33 1 0.639
935 364 5 57 0 4 39 0 0.696
936 364 5 58 1 9 31 1 0.563
937 364 5 59 1 4 31 0 0.453
938 364 6 0 1 3 35 0 0.408
939 364 6 1 0 4 33 0 0.829
940 364 6 2 1 1 32 0 0.26
941 364 6 3 0 5 37 1 0.444
942 364 6 4 0 0 32 0 0.416
943 364 6 5 0 5 31 1 0.374
944 364 6 6 0 4 31 0 0.621
945 364 6 7 0 6 31 1 0.78
946 364 6 8 0 8 32 1 0.356
947 364 6 9 0 1 31 0 0.636
948 364 6 10 1 1 48 0 0.32
949 364 6 11 0 3 35 0 0.247
950 364 6 12 1 6 33 0 0.369
951 364 6 13 0 2 32 0 0.456
952 364 6 14 1 9 33 1 0.348
953 364 6 15 0 2 33 0 0.419
954 364 6 16 1 9 32 1 0.376
955 364 6 17 0 5 32 0 0.944
956 364 6 18 0 6 32 1 0.29
957 364 6 19 0 9 31 1 0.333
958 364 6 20 1 2 33 0 0.436
959 364 6 21 0 1 32 0 0.329
960 364 6 22 1 7 33 1 0.464
961 364 6 23 1 6 31 1 0.628
962 364 6 24 0 1 34 0 0.464
963 364 6 25 1 0 31 0 0.324
964 364 6 26 0 4 34 0 0.235
965 364 6 27 1 5 32 0 0.359
966 364 6 28 0 7 33 1 0.366
967 364 6 29 1 8 43 1 0.575
968 364 6 30 0 2 33 0 0.542
969 364 6 31 1 3 34 0 0.285
970 364 6 32 1 5 41 0 0.225
971 364 6 33 1 9 31 1 0.222
972 364 6 34 1 0 31 0 0.475
973 364 6 35 0 8 31 0 0.431
974 364 6 36 0 8 31 1 0.356
975 364 6 37 1 7 31 1 0.765
976 364 6 38 0 6 33 1 0.373
977 364 6 39 1 6 32 1 0.252
978 364 6 40 1 1 31 0 0.743
979 364 6 41 1 2 32 0 0.304
980 364 6 42 1 0 33 0 0.233
981 364 6 43 1 9 40 1 0.368
982 364 6 44 0 1 31 0 0.359
983 364 6 45 1 1 39 0 0.442
984 364 6 46 0 6 32 1 0.543
985 364 6 47 0 1 37 0 0.541
986 364 6 48 0 5 32 1 0.526
987 364 6 49 0 0 33 0 0.414
988 364 6 50 0 7 31 1 0.403
989 364 6 51 1 1 33 0 0.296
990 364 6 52 1 7 32 1 0.402
991 364 6 53 0 4 31 0 0.632
992 364 6 54 0 5 39 1 0.481
993 364 6 55 1 2 31 0 0.341
994 364 6 56 0 6 31 1 0.537
995 364 6 57 0 0 34 0 0.424
996 364 6 58 0 8 34 1 0.348
997 364 6 59 1 0 31 0 0.325
998 364 7 0 1 3 31 0 0.474
999 364 7 1 1 9 34 1 0.348
1000 364 7 2 1 8 31 1 0.468
1001 364 7 3 0 0 31 0 0.376
1002 364 7 4 0 3 31 0 0.319
1003 364 7 5 1 9 33 1 0.36
1004 364 7 6 0 3 32 0 0.367
1005 364 7 7 0 5 31 0 0.277
1006 364 7 8 0 7 33 1 0.223
1007 364 7 9 1 9 34 1 0.234
1008 364 7 10 0 3 31 0 0.614
1009 364 7 11 0 6 34 1 0.675
1010 364 7 12 0 7 31 1 0.383
1011 364 7 13 1 0 33 0 0.325
1012 364 7 14 1 0 32 0 0.365
1013 364 7 15 1 4 32 0 0.34
1014 364 7 16 1 0 31 0 0.285
1015 364 7 17 1 7 44 1 0.432
1016 364 7 18 1 4 39 0 0.464
1017 364 7 19 1 2 33 0 0.338
1018 364 7 20 1 0 31 0 0.315
1019 364 7 21 0 5 31 1 0.468
1020 364 7 22 0 2 36 0 0.405
1021 364 7 23 0 4 33 1 0.394
1022 364 7 24 0 2 32 0 0.56
1023 364 7 25 0 7 31 1 0.481
1024 364 7 26 1 9 31 1 0.517
1025 364 7 27 0 3 32 0 0.902
1026 364 7 28 1 8 33 1 0.553
1027 364 7 29 1 9 31 1 0.57
1028 364 7 30 0 2 32 0 0.506
1029 364 7 31 0 2 31 0 0.573
1030 364 7 32 1 1 33 0 0.412
1031 364 7 33 1 2 31 0 0.384
1032 364 7 34 1 8 32 1 0.437
1033 364 7 35 1 8 31 1 0.539
1034 364 7 36 0 4 31 1 1.324
1035 364 7 37 0 3 40 0 0.604
1036 364 7 38 1 2 34 0 0.281
1037 364 7 39 0 0 31 0 0.34
1038 364 7 40 1 1 33 0 0.251
1039 364 7 41 1 7 33 1 0.517
1040 364 7 42 1 5 31 0 0.248
1041 364 7 43 1 7 32 1 0.643
1042 364 7 44 0 2 32 0 0.656
1043 364 7 45 0 9 34 1 0.284
1044 364 7 46 1 1 35 0 0.484
1045 364 7 47 0 5 32 1 0.502
1046 364 7 48 0 9 32 1 0.264
1047 364 7 49 0 1 32 1 0.355
1048 364 7 50 1 5 31 0 1.227
1049 364 7 51 0 0 32 0 0.739
1050 364 7 52 0 1 31 0 0.269
1051 364 7 53 0 7 38 1 0.372
1052 364 7 54 1 2 34 0 0.298
1053 364 7 55 0 8 32 1 0.787
1054 364 7 56 1 7 32 1 0.732
1055 364 7 57 1 1 32 0 0.485
1056 364 7 58 1 6 31 1 0.521
1057 364 7 59 0 0 31 0 0.378
1058 365 0 0 1 2 31 0 1.205
1059 365 0 1 1 8 37 1 0.745
1060 365 0 2 0 9 35 0 0.592
1061 365 0 3 0 4 32 0 1.452
1062 365 0 4 0 0 33 0 0.939
1063 365 0 5 1 8 33 1 0.557
1064 365 0 6 1 7 38 1 1.29
1065 365 0 7 0 5 33 0 0.638
1066 365 0 8 0 8 35 0 0.425
1067 365 0 9 0 4 31 0 0.334
1068 365 0 10 1 0 32 1 0.88
1069 365 0 11 0 9 31 1 1.236
1070 365 0 12 1 9 33 1 0.537
1071 365 0 13 0 0 34 0 0.808
1072 365 0 14 0 2 40 0 0.665
1073 365 0 15 1 1 32 1 0.573
1074 365 0 16 0 7 32 1 1.591
1075 365 0 17 1 8 32 1 1.01
1076 365 0 18 0 9 31 1 3.426
1077 365 0 19 0 0 32 0 1.004
1078 365 0 20 1 0 31 1 0.493
1079 365 0 21 1 4 32 1 2.143
1080 365 0 22 0 9 31 0 1.159
1081 365 0 23 1 3 31 1 1.354
1082 365 0 24 1 0 38 1 4.042
1083 365 0 25 1 2 33 1 0.685
1084 365 0 26 0 6 31 1 0.611
1085 365 0 27 1 5 31 1 0.656
1086 365 0 28 0 9 31 0 0.43
1087 365 0 29 1 6 32 1 0.658
1088 365 0 30 1 5 33 1 0.751
1089 365 0 31 1 9 32 1 0.456
1090 365 0 32 0 6 37 0 0.537
1091 365 0 33 0 1 32 0 0.521
1092 365 0 34 0 5 37 0 0.599
1093 365 0 35 0 9 31 0 0.407
1094 365 0 36 1 1 35 1 0.73
1095 365 0 37 1 5 41 1 0.927
1096 365 0 38 1 1 39 1 0.51
1097 365 0 39 0 3 32 1 0.203
1098 365 0 40 1 9 33 1 0.535
1099 365 0 41 0 7 32 0 0.696
1100 365 0 42 0 1 34 0 0.546
1101 365 0 43 1 6 31 1 0.659
1102 365 0 44 1 6 32 1 2.463
1103 365 0 45 0 7 31 0 0.908
1104 365 0 46 1 6 34 1 0.542
1105 365 0 47 1 2 32 1 0.559
1106 365 0 48 0 2 31 0 0.655
1107 365 0 49 1 3 31 1 0.909
1108 365 0 50 1 8 31 1 0.865
1109 365 0 51 1 7 37 1 1.01
1110 365 0 52 0 1 31 0 0.546
1111 365 0 53 0 1 31 0 0.643
1112 365 0 54 0 6 33 0 0.848
1113 365 0 55 0 8 32 0 0.349
1114 365 0 56 1 5 31 1 0.565
1115 365 0 57 0 4 31 0 0.87
1116 365 0 58 0 0 33 0 0.506
1117 365 0 59 1 6 32 1 0.62
1118 365 1 0 1 9 31 0 0.722
1119 365 1 1 0 2 34 0 0.843
1120 365 1 2 0 7 39 0 0.509
1121 365 1 3 0 0 31 0 0.735
1122 365 1 4 1 7 32 1 0.601
1123 365 1 5 0 1 46 1 1.376
1124 365 1 6 1 1 34 0 0.902
1125 365 1 7 1 8 33 1 0.602
1126 365 1 8 1 0 32 0 0.616
1127 365 1 9 0 1 31 0 1.383
1128 365 1 10 0 3 33 1 0.629
1129 365 1 11 0 2 31 1 0.563
1130 365 1 12 1 3 31 1 0.915
1131 365 1 13 1 9 33 1 0.182
1132 365 1 14 1 1 31 0 0.084
1133 365 1 15 0 5 35 1 0.115
1134 365 1 16 1 3 31 0 0.084
1135 365 1 17 1 4 38 1 0.081
1136 365 1 18 1 2 31 1 0.163
1137 365 1 19 1 2 33 1 0.081
1138 365 1 20 0 9 33 1 0.049
1139 365 1 21 0 9 34 1 0.066
1140 365 1 22 0 9 33 1 0.003
1141 365 1 23 1 0 34 1 0.022
1142 365 1 24 0 3 31 1 0.01
1143 365 1 25 0 6 33 1 0.029
1144 365 1 26 0 8 31 0 0.064
1145 365 1 27 0 3 31 1 0.098
1146 365 1 28 0 3 31 0 3.908
1147 365 1 29 0 0 31 1 1.021
1148 365 1 30 0 3 31 0 1.021
1149 365 1 31 0 4 31 0 0.557
1150 365 1 32 0 4 35 0 0.556
1151 365 1 33 1 9 32 1 0.508
1152 365 1 34 0 5 38 1 0.523
1153 365 1 35 0 0 31 0 1.261
1154 365 1 36 1 1 36 1 1.41
1155 365 1 37 0 9 33 1 0.515
1156 365 1 38 0 6 31 1 0.677
1157 365 1 39 1 9 32 0 0.992
1158 365 1 40 0 4 33 1 0.096
1159 365 1 41 0 3 34 1 0.159
1160 365 1 42 1 2 33 1 1.053
1161 365 1 43 1 2 34 0 0.555
1162 365 1 44 1 2 34 1 0.938
1163 365 1 45 0 2 32 0 0.813
1164 365 1 46 0 1 35 0 0.386
1165 365 1 47 1 0 31 1 0.393
1166 365 1 48 1 2 32 1 0.447
1167 365 1 49 0 2 32 0 0.531
1168 365 1 50 1 5 31 1 1.188
1169 365 1 51 0 2 32 0 0.51
1170 365 1 52 1 9 34 1 0.11
1171 365 1 53 0 1 34 1 0.11
1172 365 1 54 1 3 31 1 0.446
1173 365 1 55 0 5 35 0 0.512
1174 365 1 56 1 8 35 1 0.592
1175 365 1 57 0 3 31 0 0.447
1176 365 1 58 1 8 33 1 0.451
1177 365 1 59 0 2 31 0 0.391
1178 365 2 0 0 6 32 0 0.835
1179 365 2 1 0 2 34 0 0.712
1180 365 2 2 0 7 33 0 0.37
1181 365 2 3 1 5 31 1 0.426
1182 365 2 4 0 3 33 0 0.478
1183 365 2 5 0 2 32 0 0.433
1184 365 2 6 1 7 33 1 0.629
1185 365 2 7 1 8 46 1 0.442
1186 365 2 8 1 3 32 1 0.462
1187 365 2 9 0 8 34 0 0.432
1188 365 2 10 0 3 32 0 0.389
1189 365 2 11 1 7 38 1 0.632
1190 365 2 12 1 0 31 1 0.582
1191 365 2 13 1 6 31 1 0.421
1192 365 2 14 1 5 33 1 0.57
1193 365 2 15 1 6 31 1 0.427
1194 365 2 16 0 1 32 0 0.448
1195 365 2 17 0 0 31 0 0.564
1196 365 2 18 0 3 33 0 0.579
1197 365 2 19 1 0 33 1 0.45
1198 365 2 20 1 7 33 1 0.741
1199 365 2 21 1 6 35 1 0.461
1200 365 2 22 0 1 31 0 0.529
1201 365 2 23 1 6 31 1 0.53
1202 365 2 24 1 5 32 1 0.452
1203 365 2 25 1 9 34 1 0.822
1204 365 2 26 0 1 31 0 0.366
1205 365 2 27 0 0 31 0 0.565
1206 365 2 28 0 9 34 0 0.612
1207 365 2 29 0 1 34 0 0.529
1208 365 2 30 0 5 32 0 0.626
1209 365 2 31 0 0 31 0 0.384
1210 365 2 32 1 5 33 1 0.486
1211 365 2 33 0 9 34 0 0.567
1212 365 2 34 0 2 31 0 0.44
1213 365 2 35 0 7 33 0 0.332
1214 365 2 36 1 2 31 1 0.452
1215 365 2 37 1 0 32 1 0.408
1216 365 2 38 1 6 31 1 0.335
1217 365 2 39 0 0 33 0 0.406
1218 365 2 40 1 0 32 1 0.492
1219 365 2 41 1 0 34 1 0.494
1220 365 2 42 0 6 39 0 0.46
1221 365 2 43 0 2 31 0 0.64
1222 365 2 44 1 2 31 1 0.462
1223 365 2 45 0 4 31 0 0.786
1224 365 2 46 1 8 32 1 0.586
1225 365 2 47 1 7 32 1 1.305
1226 365 2 48 0 3 32 0 0.303
1227 365 2 49 0 5 34 0 0.199
1228 365 2 50 1 3 32 0 0.148
1229 365 2 51 1 5 31 0 0.163
1230 365 2 52 1 5 31 0 0.37
1231 365 2 53 0 6 41 0 0.067
1232 365 2 54 0 5 31 0 0.257
1233 365 2 55 1 9 31 0 0.124
1234 365 2 56 1 0 36 0 0.026
1235 365 2 57 0 2 32 0 0.221
1236 365 2 58 0 8 31 0 0.314
1237 365 2 59 1 5 32 1 0.323
1238 365 3 0 1 1 31 1 0.433
1239 365 3 1 0 3 32 1 0.181
1240 365 3 2 0 7 31 1 0.147
1241 365 3 3 0 1 35 0 0.16
1242 365 3 4 1 5 31 1 0.223
1243 365 3 5 0 7 31 1 0.348
1244 365 3 6 1 4 34 1 0.178
1245 365 3 7 1 9 31 1 0.24
1246 365 3 8 0 8 36 1 0.602
1247 365 3 9 0 6 32 1 0.072
1248 365 3 10 1 1 32 1 0.298
1249 365 3 11 1 4 32 1 0.051
1250 365 3 12 0 9 32 0 0.789
1251 365 3 13 1 7 31 1 0.638
1252 365 3 14 0 9 31 0 0.076
1253 365 3 15 0 2 31 0 0.046
1254 365 3 16 1 8 35 1 0.479
1255 365 3 17 1 5 32 1 0.61
1256 365 3 18 1 9 32 1 0.464
1257 365 3 19 0 0 32 0 0.451
1258 365 3 20 0 8 32 0 0.407
1259 365 3 21 0 3 35 0 0.443
1260 365 3 22 0 4 31 0 0.352
1261 365 3 23 1 2 34 1 0.599
1262 365 3 24 0 1 31 0 0.47
1263 365 3 25 1 6 32 1 0.537
1264 365 3 26 0 4 32 0 0.49
1265 365 3 27 1 9 32 1 0.493
1266 365 3 28 0 0 31 0 0.416
1267 365 3 29 0 5 32 0 0.453
1268 365 3 30 1 4 37 0 0.102
1269 365 3 31 1 0 31 1 0.487
1270 365 3 32 0 8 32 1 0.154
1271 365 3 33 0 0 31 0 0.073
1272 365 3 34 0 2 31 0 0.331
1273 365 3 35 1 8 32 1 0.515
1274 365 3 36 1 3 35 1 0.499
1275 365 3 37 1 7 31 1 0.966
1276 365 3 38 1 0 31 1 0.488
1277 365 3 39 0 8 31 1 0.268
1278 365 3 40 0 0 31 1 0.455
1279 365 3 41 0 5 32 1 1.738
1280 365 3 42 0 6 32 0 0.464
1281 365 3 43 0 5 32 1 1.155
1282 365 3 44 1 6 34 1 0.428
1283 365 3 45 0 4 34 1 0.24
1284 365 3 46 0 2 31 0 0.604
1285 365 3 47 1 4 36 0 0.312
1286 365 3 48 1 4 31 1 0.418
1287 365 3 49 1 2 31 1 0.423
1288 365 3 50 1 4 34 1 0.363
1289 365 3 51 0 2 31 1 0.147
1290 365 3 52 1 4 35 1 0.432
1291 365 3 53 0 1 34 0 0.387
1292 365 3 54 1 1 31 1 0.618
1293 365 3 55 0 8 34 0 0.839
1294 365 3 56 1 8 33 1 0.781
1295 365 3 57 1 1 31 1 0.677
1296 365 3 58 1 3 31 1 0.37
1297 365 3 59 0 1 35 1 0.103
1298 365 4 0 1 9 31 0 0.107
1299 365 4 1 0 1 31 0 0.266
1300 365 4 2 1 2 34 1 0.147
1301 365 4 3 1 4 31 1 0.098
1302 365 4 4 1 3 34 1 0.418
1303 365 4 5 0 4 32 1 0.103
1304 365 4 6 1 3 33 1 0.375
1305 365 4 7 1 5 32 1 0.398
1306 365 4 8 1 7 32 1 0.132
1307 365 4 9 0 0 31 1 0.083
1308 365 4 10 1 9 40 1 0.368
1309 365 4 11 1 9 32 1 0.327
1310 365 4 12 1 8 33 1 0.111
1311 365 4 13 1 9 31 1 0.079
1312 365 4 14 1 8 31 1 0.049
1313 365 4 15 0 1 32 1 0.083
1314 365 4 16 1 6 31 1 0.389
1315 365 4 17 0 6 32 0 0.331
1316 365 4 18 0 8 31 0 0.356
1317 365 4 19 0 9 33 0 0.363
1318 365 4 20 1 9 31 1 0.37
1319 365 4 21 1 7 31 1 0.362
1320 365 4 22 0 7 33 0 0.304
1321 365 4 23 1 5 33 1 0.441
1322 365 4 24 1 3 31 1 0.365
1323 365 4 25 0 1 34 0 0.339
1324 365 4 26 0 0 33 0 0.331
1325 365 4 27 0 6 42 0 0.365
1326 365 4 28 1 7 31 1 0.677
1327 365 4 29 0 8 31 0 0.417
1328 365 4 30 1 5 31 1 0.463
1329 365 4 31 1 9 41 1 0.429
1330 365 4 32 1 4 33 1 0.561
1331 365 4 33 0 5 31 0 0.577
1332 365 4 34 0 0 35 0 0.687
1333 365 4 35 0 8 33 0 0.346
1334 365 4 36 0 6 31 0 0.29
1335 365 4 37 0 7 31 0 0.477
1336 365 4 38 1 8 31 1 0.352
1337 365 4 39 0 0 33 0 0.423
1338 365 4 40 1 1 33 1 0.524
1339 365 4 41 1 1 31 1 0.558
1340 365 4 42 1 1 31 1 0.415
1341 365 4 43 1 0 32 1 0.388
1342 365 4 44 0 2 31 0 0.315
1343 365 4 45 0 7 33 0 0.387
1344 365 4 46 0 8 31 0 0.554
1345 365 4 47 1 4 31 1 0.411
1346 365 4 48 0 6 32 0 0.416
1347 365 4 49 1 2 34 1 0.404
1348 365 4 50 0 2 33 0 0.426
1349 365 4 51 1 6 38 1 0.395
1350 365 4 52 1 6 34 1 0.415
1351 365 4 53 0 4 31 0 0.357
1352 365 4 54 1 5 32 1 0.429
1353 365 4 55 1 2 32 1 0.337
1354 365 4 56 1 6 31 1 0.426
1355 365 4 57 0 7 31 0 0.448
1356 365 4 58 1 3 31 1 0.432
1357 365 4 59 1 0 33 1 0.116
1358 365 5 0 1 4 31 1 0.644
1359 365 5 1 1 6 32 1 0.385
1360 365 5 2 1 1 31 1 0.488
1361 365 5 3 1 7 31 1 0.331
1362 365 5 4 0 4 31 0 0.324
1363 365 5 5 0 6 33 0 0.364
1364 365 5 6 1 3 31 1 0.385
1365 365 5 7 1 4 35 0 0.117
1366 365 5 8 0 4 31 1 0.838
1367 365 5 9 0 2 32 0 0.795
1368 365 5 10 1 3 31 1 0.535
1369 365 5 11 1 3 32 1 0.36
1370 365 5 12 0 4 37 0 0.38
1371 365 5 13 0 7 33 0 0.722
1372 365 5 14 0 5 34 0 0.46
1373 365 5 15 1 2 33 0 0.206
1374 365 5 16 0 3 33 0 0.185
1375 365 5 17 1 0 33 1 2.23
1376 365 5 18 1 1 33 1 0.554
1377 365 5 19 0 9 34 0 0.39
1378 365 5 20 0 3 31 0 0.493
1379 365 5 21 0 0 35 0 0.349
1380 365 5 22 1 4 32 1 0.469
1381 365 5 23 0 3 31 0 0.425
1382 365 5 24 1 4 31 1 0.382
1383 365 5 25 0 5 39 0 0.56
1384 365 5 26 0 2 34 0 0.527
1385 365 5 27 1 7 35 1 0.446
1386 365 5 28 0 4 31 0 0.37
1387 365 5 29 1 9 31 1 0.36
1388 365 5 30 1 6 31 1 0.463
1389 365 5 31 1 4 33 0 0.61
1390 365 5 32 0 8 32 0 0.558
1391 365 5 33 1 1 31 1 0.751
1392 365 5 34 0 7 35 0 0.63
1393 365 5 35 0 8 35 0 0.402
1394 365 5 36 0 8 31 0 0.424
1395 365 5 37 0 7 31 0 0.462
1396 365 5 38 0 6 32 0 0.353
1397 365 5 39 1 3 32 1 0.281
1398 365 5 40 1 2 31 1 0.211
1399 365 5 41 0 7 31 0 0.4
1400 365 5 42 1 5 34 1 0.35
1401 365 5 43 1 4 32 1 0.533
1402 365 5 44 1 4 31 1 0.391
1403 365 5 45 1 7 33 1 0.413
1404 365 5 46 0 1 32 0 0.527
1405 365 5 47 0 0 31 0 0.464
1406 365 5 48 1 7 31 1 0.66
1407 365 5 49 0 5 34 0 0.431
1408 365 5 50 1 2 33 1 0.499
1409 365 5 51 0 5 31 0 0.47
1410 365 5 52 1 3 38 1 0.454
1411 365 5 53 1 6 31 1 0.548
1412 365 5 54 1 7 31 1 0.101
1413 365 5 55 0 6 36 1 0.083
1414 365 5 56 1 5 31 1 0.373
1415 365 5 57 1 2 31 0 3.196
1416 365 5 58 0 9 34 0 0.381
1417 365 5 59 0 3 37 0 0.24
1418 365 6 0 0 5 33 0 1.099
1419 365 6 1 1 6 31 1 0.792
1420 365 6 2 0 4 33 0 0.447
1421 365 6 3 1 2 31 1 0.324
1422 365 6 4 1 4 35 1 0.491
1423 365 6 5 1 3 31 1 0.59
1424 365 6 6 1 8 32 1 0.405
1425 365 6 7 0 9 35 0 0.393
1426 365 6 8 1 1 31 1 0.48
1427 365 6 9 0 9 32 0 0.434
1428 365 6 10 1 3 33 1 0.374
1429 365 6 11 0 7 32 0 0.413
1430 365 6 12 1 0 31 0 1.059
1431 365 6 13 0 5 32 0 0.353
1432 365 6 14 0 3 35 0 0.359
1433 365 6 15 0 5 31 0 0.358
1434 365 6 16 0 8 34 0 0.364
1435 365 6 17 1 1 32 0 3.459
1436 365 6 18 1 7 31 0 0.268
1437 365 6 19 0 9 37 0 1.715
1438 365 6 20 0 8 35 0 0.408
1439 365 6 21 0 0 35 0 0.684
1440 365 6 22 0 4 33 0 0.375
1441 365 6 23 0 1 34 0 0.411
1442 365 6 24 1 8 32 1 0.319
1443 365 6 25 1 5 31 1 0.313
1444 365 6 26 1 4 32 1 0.337
1445 365 6 27 1 7 31 1 0.426
1446 365 6 28 0 4 32 0 0.335
1447 365 6 29 0 4 32 0 0.359
1448 365 6 30 1 6 37 1 0.458
1449 365 6 31 0 5 35 0 0.332
1450 365 6 32 0 6 34 0 0.339
1451 365 6 33 1 0 34 1 0.426
1452 365 6 34 0 6 31 0 0.383
1453 365 6 35 0 5 33 0 0.357
1454 365 6 36 1 8 32 1 0.348
1455 365 6 37 0 3 32 0 0.452
1456 365 6 38 0 5 32 0 0.376
1457 365 6 39 0 4 32 0 0.351
1458 365 6 40 0 6 34 0 0.277
1459 365 6 41 1 5 31 1 0.48
1460 365 6 42 1 7 39 1 0.383
1461 365 6 43 0 4 32 0 0.405
1462 365 6 44 0 8 31 0 0.347
1463 365 6 45 1 9 32 1 0.369
1464 365 6 46 1 0 35 1 0.55
1465 365 6 47 1 1 31 1 0.247
1466 365 6 48 0 9 37 0 0.383
1467 365 6 49 1 4 38 1 0.455
1468 365 6 50 1 2 31 1 0.411
1469 365 6 51 1 8 31 1 0.337
1470 365 6 52 0 3 32 0 0.345
1471 365 6 53 1 4 31 1 0.353
1472 365 6 54 0 6 33 0 0.456
1473 365 6 55 0 7 32 0 0.492
1474 365 6 56 0 8 33 0 0.319
1475 365 6 57 1 2 35 1 0.406
1476 365 6 58 0 5 33 0 0.443
1477 365 6 59 0 1 31 0 0.399
1478 365 7 0 0 1 35 0 0.476
1479 365 7 1 0 7 31 0 0.32
1480 365 7 2 1 6 31 1 0.313
1481 365 7 3 1 1 31 0 0.467
1482 365 7 4 1 1 32 1 0.246
1483 365 7 5 0 1 32 0 0.209
1484 365 7 6 0 9 31 0 0.239
1485 365 7 7 1 5 31 1 0.107
1486 365 7 8 1 4 31 1 0.22
1487 365 7 9 0 7 34 0 0.247
1488 365 7 10 1 6 31 1 0.307
1489 365 7 11 1 5 31 1 0.621
1490 365 7 12 1 1 34 1 1.113
1491 365 7 13 0 7 31 1 0.726
1492 365 7 14 1 8 37 1 0.397
1493 365 7 15 0 0 33 0 0.178
1494 365 7 16 0 2 31 0 0.256
1495 365 7 17 1 0 35 1 0.538
1496 365 7 18 0 3 31 0 0.475
1497 365 7 19 0 3 31 0 0.863
1498 365 7 20 1 7 33 1 0.42
1499 365 7 21 0 4 32 0 0.505
1500 365 7 22 1 9 32 1 0.523
1501 365 7 23 0 8 33 0 0.38
1502 365 7 24 1 8 34 1 0.641
1503 365 7 25 1 0 31 1 1.615
1504 365 7 26 1 7 31 1 0.506
1505 365 7 27 0 2 34 0 0.555
1506 365 7 28 1 8 34 1 0.586
1507 365 7 29 0 8 33 0 0.425
1508 365 7 30 0 4 31 0 0.91
1509 365 7 31 1 0 32 1 0.37
1510 365 7 32 0 8 31 0 0.457
1511 365 7 33 1 8 32 1 0.669
1512 365 7 34 0 9 34 0 0.44
1513 365 7 35 0 6 32 0 0.908
1514 365 7 36 1 3 33 1 0.623
1515 365 7 37 1 0 32 1 1.133
1516 365 7 38 0 9 34 0 0.456
1517 365 7 39 1 2 31 1 0.812
1518 365 7 40 1 3 34 1 0.674
1519 365 7 41 1 6 32 1 0.43
1520 365 7 42 1 8 33 1 0.37
1521 365 7 43 1 7 33 1 0.376
1522 365 7 44 1 1 32 1 0.319
1523 365 7 45 0 3 33 0 0.375
1524 365 7 46 0 6 31 0 0.318
1525 365 7 47 1 9 32 1 0.343
1526 365 7 48 1 9 31 1 0.303
1527 365 7 49 1 3 36 1 0.294
1528 365 7 50 0 6 33 0 0.399
1529 365 7 51 1 7 33 0 0.564
1530 365 7 52 1 1 36 1 0.402
1531 365 7 53 0 0 33 0 0.471
1532 365 7 54 0 5 32 0 0.378
1533 365 7 55 0 7 32 0 0.544
1534 365 7 56 0 7 31 0 0.337
1535 365 7 57 0 2 34 0 0.312
1536 365 7 58 1 3 31 1 0.642
1537 365 7 59 0 7 31 0 0.496
