datID sessionID block trial background target forePeriod resp rt
1 360 0 0 0 1 32 0 1.262
2 360 0 1 0 8 31 0 0.934
3 360 0 2 0 9 35 1 0.604
4 360 0 3 0 0 31 0 0.617
5 360 0 4 0 7 31 0 0.486
6 360 0 5 0 5 35 0 0.373
7 360 0 6 0 2 32 0 0.446
8 360 0 7 0 3 31 0 0.55
9 360 0 8 0 4 31 0 0.598
10 360 0 9 0 6 43 0 0.484
11 361 0 0 0 8 32 0 0.487
12 361 0 1 0 3 34 0 0.4
13 361 0 2 0 12 32 1 0.66
14 361 0 3 1 13 31 1 0.606
15 361 0 4 1 7 31 1 0.601
16 361 0 5 2 15 34 1 0.483
17 361 0 6 2 20 33 1 0.399
18 361 0 7 0 5 32 0 0.369
19 361 0 8 1 17 41 1 0.349
20 361 0 9 0 8 32 0 0.499
21 361 0 10 1 15 31 1 0.467
22 361 0 11 2 7 42 0 0.474
23 361 0 12 0 9 31 0 0.346
24 361 0 13 1 3 41 0 0.263
25 361 0 14 1 18 35 1 0.282
26 361 0 15 0 5 31 0 0.467
27 361 0 16 2 11 36 0 0.485
28 361 0 17 0 16 31 1 0.212
29 361 0 18 2 6 31 0 0.381
30 361 0 19 0 6 35 0 0.447
31 361 0 20 1 11 33 1 0.272
32 361 0 21 2 1 32 0 0.28
33 361 0 22 0 13 32 1 0.333
34 361 0 23 0 13 36 1 0.24
35 361 0 24 1 0 31 0 0.211
36 361 0 25 2 15 37 1 0.443
37 361 0 26 1 20 34 1 0.378
38 361 0 27 0 1 31 0 0.184
39 361 0 28 2 9 31 0 0.305
40 361 0 29 2 2 32 0 0.291
41 361 0 30 0 9 32 1 0.251
42 361 0 31 2 1 33 0 0.356
43 361 0 32 0 19 36 1 0.341
44 361 0 33 0 18 32 1 0.295
45 361 0 34 0 15 32 1 0.265
46 361 0 35 2 10 35 0 0.384
47 361 0 36 0 14 31 1 0.256
48 361 0 37 0 6 31 0 0.49
49 361 0 38 2 5 32 1 0.274
50 361 0 39 0 14 31 1 0.267
51 361 0 40 0 11 33 1 0.288
52 361 0 41 0 2 36 0 0.227
53 361 0 42 2 1 31 0 0.302
54 361 0 43 1 20 31 1 0.262
55 361 0 44 2 13 36 1 0.372
56 361 0 45 0 1 32 0 0.249
57 361 0 46 2 17 35 1 0.285
58 361 0 47 0 11 31 1 0.245
59 361 0 48 2 3 32 0 0.185
60 361 0 49 2 20 35 1 0.227
61 361 0 50 1 1 34 0 0.234
62 361 0 51 2 4 33 0 0.24
63 361 0 52 1 12 36 0 0.227
64 361 0 53 2 5 37 0 0.331
65 361 0 54 0 19 31 1 0.13
66 361 0 55 2 19 32 1 0.244
67 361 0 56 2 14 33 1 0.187
68 361 0 57 2 4 31 0 0.215
69 361 0 58 0 6 31 1 0.242
70 361 0 59 2 19 33 1 0.348
71 361 0 60 0 6 34 0 0.209
72 361 0 61 2 8 31 0 0.309
73 361 0 62 0 4 31 0 0.311
74 361 1 0 1 2 34 0 0.255
75 361 1 1 0 17 36 1 0.336
76 361 1 2 0 4 33 0 0.326
77 361 1 3 1 17 31 1 0.19
78 361 1 4 2 16 32 1 0.344
79 361 1 5 0 7 31 0 0.207
80 361 1 6 1 7 36 0 0.311
81 361 1 7 2 18 32 1 0.298
82 361 1 8 2 9 33 0 0.321
83 361 1 9 1 7 31 0 0.297
84 361 1 10 2 8 31 0 0.321
85 361 1 11 2 18 32 1 0.232
86 361 1 12 1 12 33 1 0.369
87 361 1 13 0 9 33 1 0.39
88 361 1 14 2 19 34 0 0.153
89 361 1 15 1 14 33 1 0.391
90 361 1 16 2 5 34 0 0.235
91 361 1 17 2 12 36 0 0.265
92 361 1 18 1 9 33 1 0.316
93 361 1 19 1 20 34 1 0.21
94 361 1 20 2 20 33 1 0.3
95 361 1 21 0 12 32 1 0.452
96 361 1 22 2 9 31 0 0.327
97 361 1 23 1 7 32 0 0.286
98 361 1 24 2 14 33 1 0.373
99 361 1 25 2 3 36 0 0.232
100 361 1 26 1 10 32 1 0.352
101 361 1 27 2 12 32 1 0.405
102 361 1 28 0 14 34 1 0.232
103 361 1 29 1 6 32 0 0.206
104 361 1 30 2 3 31 0 0.314
105 361 1 31 0 20 32 1 0.186
106 361 1 32 0 1 47 0 0.301
107 361 1 33 0 19 31 1 0.213
108 361 1 34 0 20 36 1 0.173
109 361 1 35 1 16 33 0 0.199
110 361 1 36 0 16 31 1 0.172
111 361 1 37 0 7 32 1 0.2
112 361 1 38 2 19 31 1 0.196
113 361 1 39 2 6 35 0 0.257
114 361 1 40 2 16 31 1 0.262
115 361 1 41 0 2 33 0 0.237
116 361 1 42 2 15 33 1 0.198
117 361 1 43 0 11 36 1 0.207
118 361 1 44 1 19 33 1 0.265
119 361 1 45 0 16 36 1 0.223
120 361 1 46 1 15 34 1 0.294
121 361 1 47 2 1 31 0 0.254
122 361 1 48 1 16 31 1 0.232
123 361 1 49 2 7 33 1 0.158
124 361 1 50 1 13 32 1 0.116
125 361 1 51 0 19 31 1 0.307
126 361 1 52 0 2 32 0 0.218
127 361 1 53 0 10 31 0 0.336
128 361 1 54 2 17 31 1 0.148
129 361 1 55 0 4 37 1 0.223
130 361 1 56 0 8 37 1 0.166
131 361 1 57 1 17 31 1 0.195
132 361 1 58 2 11 33 0 0.248
133 361 1 59 0 2 31 1 0.162
134 361 1 60 1 6 31 0 0.298
135 361 1 61 2 19 31 1 0.243
136 361 1 62 2 6 32 0 0.253
137 361 2 0 2 13 32 0 0.318
138 361 2 1 0 9 31 1 0.245
139 361 2 2 1 5 31 0 0.27
140 361 2 3 0 20 31 1 0.231
141 361 2 4 0 10 31 1 0.146
142 361 2 5 2 20 32 1 0.239
143 361 2 6 1 10 31 1 0.311
144 361 2 7 2 0 38 0 0.166
145 361 2 8 1 16 34 1 0.241
146 361 2 9 2 17 32 1 0.219
147 361 2 10 0 7 35 1 0.212
148 361 2 11 2 10 32 1 0.219
149 361 2 12 0 5 32 0 0.31
150 361 2 13 2 2 33 0 0.3
151 361 2 14 1 2 32 0 0.287
152 361 2 15 0 2 31 0 0.264
153 361 2 16 1 19 32 0 0.273
154 361 2 17 0 18 35 1 0.258
155 361 2 18 0 3 31 0 0.3
156 361 2 19 1 0 32 0 0.258
157 361 2 20 2 11 33 0 0.299
158 361 2 21 2 1 35 0 0.209
159 361 2 22 0 15 31 1 0.198
160 361 2 23 1 17 40 1 0.221
161 361 2 24 1 18 39 1 0.239
162 361 2 25 0 8 32 0 0.425
163 361 2 26 1 4 33 0 0.199
164 361 2 27 2 19 32 1 0.178
165 361 2 28 0 12 31 1 0.239
166 361 2 29 1 7 33 0 0.2
167 361 2 30 2 18 32 1 0.195
168 361 2 31 0 3 33 0 0.27
169 361 2 32 1 4 32 1 0.199
170 361 2 33 0 3 32 0 0.322
171 361 2 34 1 12 34 1 0.392
172 361 2 35 1 5 34 0 0.188
173 361 2 36 2 2 33 0 0.247
174 361 2 37 2 9 34 0 0.287
175 361 2 38 0 15 31 1 0.2
176 361 2 39 1 4 31 0 0.259
177 361 2 40 2 2 31 0 0.269
178 361 2 41 1 16 33 1 0.246
179 361 2 42 2 10 31 0 0.271
180 361 2 43 2 19 31 1 0.281
181 361 2 44 0 2 33 0 0.241
182 361 2 45 1 15 35 1 0.313
183 361 2 46 0 11 33 1 0.24
184 361 2 47 2 2 33 0 0.234
185 361 2 48 2 15 32 1 0.356
186 361 2 49 0 15 33 1 0.361
187 361 2 50 0 13 31 1 0.239
188 361 2 51 1 4 34 0 0.296
189 361 2 52 1 18 33 1 0.191
190 361 2 53 0 17 33 1 0.297
191 361 2 54 0 8 37 1 0.271
192 361 2 55 1 19 31 0 0.184
193 361 2 56 1 10 35 0 0.209
194 361 2 57 1 2 32 1 0.189
195 361 2 58 2 12 33 0 0.232
196 361 2 59 1 15 36 1 0.287
197 361 2 60 2 20 33 1 0.279
198 361 2 61 1 20 32 1 0.24
199 361 2 62 2 0 33 0 0.249
200 361 3 0 0 3 34 0 0.258
201 361 3 1 1 8 32 1 0.282
202 361 3 2 2 7 31 1 0.259
203 361 3 3 2 3 32 0 0.366
204 361 3 4 0 3 34 0 0.29
205 361 3 5 0 18 31 1 0.266
206 361 3 6 1 12 35 0 0.257
207 361 3 7 2 8 32 1 0.251
208 361 3 8 2 14 36 1 0.258
209 361 3 9 2 11 31 1 0.379
210 361 3 10 1 0 32 0 0.192
211 361 3 11 0 8 35 1 0.234
212 361 3 12 2 16 37 0 0.177
213 361 3 13 1 18 33 1 0.317
214 361 3 14 2 9 31 0 0.277
215 361 3 15 1 3 34 0 0.266
216 361 3 16 0 13 34 1 0.193
217 361 3 17 2 0 34 0 0.284
218 361 3 18 1 12 31 1 0.373
219 361 3 19 1 15 31 1 0.267
220 361 3 20 1 11 36 1 0.252
221 361 3 21 0 19 37 1 0.323
222 361 3 22 2 11 32 1 0.554
223 361 3 23 2 14 32 1 0.328
224 361 3 24 2 4 32 0 0.188
225 361 3 25 0 7 31 1 0.2
226 361 3 26 2 4 31 0 0.276
227 361 3 27 2 12 31 1 0.253
228 361 3 28 0 0 31 0 0.245
229 361 3 29 0 12 33 1 0.239
230 361 3 30 0 11 32 1 0.217
231 361 3 31 2 0 37 0 0.192
232 361 3 32 1 1 31 0 0.363
233 361 3 33 1 3 31 0 0.289
234 361 3 34 2 0 36 0 0.263
235 361 3 35 2 18 32 1 0.272
236 361 3 36 0 11 31 1 0.249
237 361 3 37 0 18 36 1 0.24
238 361 3 38 0 11 32 1 0.298
239 361 3 39 1 9 38 1 0.511
240 361 3 40 2 10 33 0 0.111
241 361 3 41 1 19 31 1 0.19
242 361 3 42 0 7 31 0 0.426
243 361 3 43 1 11 32 1 0.222
244 361 3 44 2 20 34 1 0.231
245 361 3 45 1 12 31 1 0.354
246 361 3 46 0 9 32 1 0.343
247 361 3 47 1 13 33 0 0.172
248 361 3 48 0 3 35 1 0.119
249 361 3 49 1 9 33 0 0.34
250 361 3 50 0 20 33 1 0.153
251 361 3 51 1 6 31 0 0.229
252 361 3 52 1 18 33 1 0.174
253 361 3 53 2 7 33 0 0.362
254 361 3 54 2 18 35 1 0.173
255 361 3 55 0 14 33 1 0.402
256 361 3 56 0 20 33 1 0.278
257 361 3 57 0 20 33 1 0.222
258 361 3 58 1 2 34 0 0.231
259 361 3 59 1 2 32 1 0.225
260 361 3 60 1 14 35 0 0.132
261 361 3 61 1 5 31 0 0.32
262 361 3 62 2 17 33 1 0.246
263 361 4 0 2 10 31 0 0.271
264 361 4 1 1 3 34 0 0.246
265 361 4 2 1 6 33 0 0.224
266 361 4 3 0 14 32 1 0.202
267 361 4 4 1 0 37 0 0.195
268 361 4 5 1 9 31 1 0.351
269 361 4 6 1 5 31 0 0.085
270 361 4 7 1 17 35 1 0.259
271 361 4 8 2 16 41 1 0.407
272 361 4 9 0 15 34 1 0.218
273 361 4 10 0 4 33 0 0.235
274 361 4 11 0 17 31 1 0.271
275 361 4 12 0 17 32 1 0.264
276 361 4 13 2 4 34 0 0.223
277 361 4 14 2 8 31 1 0.198
278 361 4 15 0 5 33 1 0.174
279 361 4 16 0 12 36 1 0.44
280 361 4 17 0 11 31 0 0.235
281 361 4 18 1 9 32 0 0.261
282 361 4 19 1 4 32 0 0.351
283 361 4 20 0 10 32 0 0.356
284 361 4 21 0 17 35 1 0.232
285 361 4 22 0 16 32 1 0.226
286 361 4 23 1 0 31 0 0.333
287 361 4 24 0 12 33 0 0.227
288 361 4 25 0 13 31 1 0.185
289 361 4 26 2 14 33 1 0.388
290 361 4 27 1 8 32 1 0.408
291 361 4 28 1 4 32 0 0.17
292 361 4 29 1 6 31 0 0.231
293 361 4 30 1 7 31 0 0.306
294 361 4 31 1 0 31 0 0.298
295 361 4 32 2 18 31 1 0.33
296 361 4 33 2 8 33 1 0.224
297 361 4 34 0 8 32 0 0.154
298 361 4 35 2 13 32 1 0.511
299 361 4 36 1 9 31 1 0.304
300 361 4 37 0 5 31 0 0.168
301 361 4 38 0 2 34 0 0.228
302 361 4 39 0 14 31 1 0.271
303 361 4 40 1 6 33 0 0.231
304 361 4 41 0 4 32 1 0.177
305 361 4 42 1 1 43 0 0.099
306 361 4 43 1 12 32 1 0.37
307 361 4 44 2 7 36 0 0.26
308 361 4 45 1 20 31 1 0.254
309 361 4 46 1 11 31 1 0.328
310 361 4 47 2 2 33 0 0.27
311 361 4 48 2 3 31 0 0.28
312 361 4 49 0 7 32 0 0.496
313 361 4 50 1 5 38 0 0.333
314 361 4 51 2 15 32 1 0.324
315 361 4 52 2 6 31 0 0.235
316 361 4 53 1 11 34 1 0.34
317 361 4 54 1 16 34 1 0.457
318 361 4 55 1 20 34 1 0.314
319 361 4 56 1 18 31 1 0.322
320 361 4 57 1 14 34 1 0.328
321 361 4 58 2 13 33 1 0.446
322 361 4 59 1 18 36 1 0.319
323 361 4 60 0 12 34 1 0.372
324 361 4 61 1 8 31 0 0.378
325 361 4 62 2 12 35 0 0.43
326 361 5 0 2 10 32 0 0.343
327 361 5 1 1 15 31 1 0.254
328 361 5 2 1 19 31 0 0.296
329 361 5 3 1 15 31 1 0.241
330 361 5 4 0 19 35 1 0.146
331 361 5 5 2 6 35 0 0.364
332 361 5 6 2 13 31 0 0.449
333 361 5 7 2 2 38 0 0.32
334 361 5 8 0 10 34 1 0.262
335 361 5 9 2 17 31 1 0.479
336 361 5 10 0 7 35 1 0.239
337 361 5 11 1 20 40 1 0.324
338 361 5 12 1 1 37 0 0.264
339 361 5 13 2 0 31 0 0.338
340 361 5 14 2 5 31 0 0.327
341 361 5 15 0 20 33 1 0.285
342 361 5 16 2 4 32 0 0.325
343 361 5 17 2 17 40 1 0.296
344 361 5 18 2 14 34 1 0.222
345 361 5 19 0 6 33 0 0.308
346 361 5 20 1 16 33 1 0.235
347 361 5 21 0 0 31 0 0.257
348 361 5 22 1 5 31 0 0.379
349 361 5 23 2 6 31 0 0.384
350 361 5 24 1 13 31 1 0.278
351 361 5 25 1 10 35 1 0.301
352 361 5 26 2 15 41 1 0.362
353 361 5 27 0 12 33 1 0.255
354 361 5 28 0 7 32 0 0.344
355 361 5 29 1 17 33 1 0.259
356 361 5 30 2 1 31 0 0.277
357 361 5 31 0 0 33 0 0.333
358 361 5 32 0 14 32 1 0.244
359 361 5 33 0 1 32 0 0.296
360 361 5 34 1 7 34 0 0.348
361 361 5 35 1 13 33 1 0.289
362 361 5 36 0 6 31 0 0.33
363 361 5 37 0 13 32 1 0.353
364 361 5 38 1 14 34 0 0.229
365 361 5 39 2 8 31 1 0.256
366 361 5 40 1 10 33 1 0.409
367 361 5 41 0 5 31 0 0.409
368 361 5 42 0 14 31 1 0.302
369 361 5 43 1 8 33 0 0.485
370 361 5 44 2 2 34 0 0.356
371 361 5 45 0 1 36 0 0.248
372 361 5 46 2 0 32 0 0.401
373 361 5 47 2 8 32 1 0.405
374 361 5 48 2 7 32 0 0.249
375 361 5 49 1 13 31 1 0.339
376 361 5 50 1 10 32 1 0.345
377 361 5 51 0 4 31 0 0.4
378 361 5 52 2 5 33 0 0.276
379 361 5 53 2 5 31 0 0.301
380 361 5 54 0 5 31 0 0.357
381 361 5 55 0 1 32 0 0.267
382 361 5 56 1 13 31 1 0.292
383 361 5 57 2 14 32 1 0.332
384 361 5 58 0 16 36 1 0.277
385 361 5 59 1 6 32 0 0.206
386 361 5 60 1 1 31 0 0.281
387 361 5 61 0 6 38 0 0.286
388 361 5 62 1 1 31 0 0.343
389 361 6 0 2 15 32 1 0.436
390 361 6 1 2 13 32 0 0.487
391 361 6 2 2 12 31 1 0.471
392 361 6 3 0 17 31 1 0.361
393 361 6 4 2 3 34 0 0.28
394 361 6 5 0 10 32 0 0.353
395 361 6 6 1 9 31 0 0.327
396 361 6 7 2 3 33 0 0.318
397 361 6 8 2 16 31 1 0.293
398 361 6 9 2 11 35 1 0.358
399 361 6 10 2 6 31 0 0.413
400 361 6 11 2 16 31 1 0.353
401 361 6 12 0 10 33 1 0.31
402 361 6 13 0 18 35 1 0.313
403 361 6 14 1 5 31 0 0.177
404 361 6 15 0 17 32 1 0.205
405 361 6 16 2 20 31 0 0.212
406 361 6 17 2 9 35 0 0.187
407 361 6 18 2 13 32 1 0.182
408 361 6 19 0 19 33 1 0.14
409 361 6 20 0 1 31 0 0.282
410 361 6 21 2 12 31 0 0.355
411 361 6 22 2 15 32 0 0.456
412 361 6 23 1 10 32 1 0.427
413 361 6 24 2 9 32 0 0.494
414 361 6 25 1 6 34 0 0.334
415 361 6 26 0 16 31 1 0.229
416 361 6 27 1 14 33 1 0.335
417 361 6 28 0 4 34 0 0.308
418 361 6 29 1 8 31 0 0.524
419 361 6 30 0 0 32 0 0.316
420 361 6 31 1 17 31 1 0.196
421 361 6 32 0 1 31 0 0.352
422 361 6 33 1 3 31 0 0.322
423 361 6 34 1 19 31 1 0.266
424 361 6 35 2 14 32 1 0.595
425 361 6 36 0 17 32 1 0.32
426 361 6 37 0 13 31 1 0.296
427 361 6 38 1 3 31 0 0.304
428 361 6 39 0 16 38 1 0.212
429 361 6 40 1 17 31 1 0.336
430 361 6 41 2 0 36 0 0.356
431 361 6 42 2 5 31 0 0.33
432 361 6 43 2 12 36 1 0.302
433 361 6 44 1 2 31 0 0.309
434 361 6 45 1 20 34 1 0.257
435 361 6 46 2 16 36 1 0.296
436 361 6 47 1 0 38 0 0.25
437 361 6 48 2 19 32 1 0.29
438 361 6 49 1 19 37 1 0.295
439 361 6 50 2 11 31 0 0.301
440 361 6 51 2 4 33 1 0.196
441 361 6 52 0 9 32 0 0.442
442 361 6 53 2 11 31 1 0.825
443 361 6 54 1 8 35 1 0.572
444 361 6 55 2 5 39 0 0.358
445 361 6 56 0 5 38 0 0.31
446 361 6 57 0 6 31 0 0.286
447 361 6 58 2 7 33 0 0.374
448 361 6 59 1 14 32 1 0.251
449 361 6 60 0 13 32 1 0.323
450 361 6 61 0 15 38 1 0.224
451 361 6 62 2 10 33 0 0.276
452 361 7 0 0 3 36 0 0.342
453 361 7 1 2 9 38 0 0.313
454 361 7 2 0 16 33 1 0.208
455 361 7 3 1 7 31 0 0.312
456 361 7 4 1 14 33 1 0.527
457 361 7 5 1 12 34 1 0.504
458 361 7 6 0 18 31 1 0.47
459 361 7 7 2 17 33 1 0.343
460 361 7 8 0 8 33 0 0.283
461 361 7 9 1 1 37 0 0.369
462 361 7 10 0 2 32 0 0.29
463 361 7 11 0 18 31 1 0.379
464 361 7 12 0 18 35 1 0.286
465 361 7 13 1 3 31 0 0.343
466 361 7 14 2 3 32 0 0.302
467 361 7 15 1 15 32 1 0.341
468 361 7 16 2 17 32 1 0.3
469 361 7 17 1 8 32 0 0.291
470 361 7 18 0 0 39 0 0.343
471 361 7 19 0 15 32 1 0.238
472 361 7 20 1 16 31 1 0.373
473 361 7 21 0 9 31 1 0.314
474 361 7 22 2 20 32 0 0.264
475 361 7 23 0 10 31 1 0.562
476 361 7 24 0 10 33 0 0.542
477 361 7 25 1 16 32 1 0.301
478 361 7 26 0 0 31 0 0.341
479 361 7 27 2 18 37 1 0.353
480 361 7 28 2 16 31 1 0.263
481 361 7 29 1 14 34 1 0.271
482 361 7 30 1 9 33 0 0.439
483 361 7 31 1 0 31 0 0.362
484 361 7 32 0 0 34 0 0.287
485 361 7 33 2 18 33 1 0.246
486 361 7 34 1 3 34 0 0.303
487 361 7 35 2 6 36 0 0.244
488 361 7 36 1 2 32 0 0.334
489 361 7 37 1 8 34 1 0.355
490 361 7 38 1 19 34 0 0.344
491 361 7 39 0 15 31 1 0.399
492 361 7 40 2 1 31 0 0.361
493 361 7 41 1 13 33 1 0.398
494 361 7 42 0 4 34 0 0.401
495 361 7 43 2 13 32 1 0.277
496 361 7 44 1 10 33 1 0.317
497 361 7 45 1 4 32 0 0.24
498 361 7 46 2 1 31 0 0.378
499 361 7 47 1 2 32 0 0.345
500 361 7 48 0 9 31 1 0.32
501 361 7 49 0 0 33 0 0.183
502 361 7 50 0 20 38 1 0.286
503 361 7 51 2 4 31 0 0.343
504 361 7 52 1 18 31 1 0.333
505 361 7 53 1 11 32 1 0.418
506 361 7 54 2 7 37 0 0.237
507 361 7 55 1 11 31 1 0.296
508 361 7 56 1 5 33 0 0.22
509 361 7 57 0 19 32 1 0.225
510 361 7 58 1 11 31 1 0.396
511 361 7 59 2 10 33 0 0.479
512 361 7 60 1 4 31 0 0.352
513 361 7 61 2 8 31 0 0.288
514 361 7 62 1 1 33 0 0.264
515 362 0 0 2 2 34 0 1.052
516 362 0 1 0 2 31 0 1.637
517 362 0 2 1 14 34 1 0.566
518 362 0 3 0 18 31 1 0.301
519 362 0 4 1 8 33 1 0.352
520 362 0 5 2 8 31 0 0.513
521 362 0 6 1 19 33 1 0.334
522 362 0 7 0 19 32 1 0.292
523 362 0 8 2 10 31 0 0.389
524 362 0 9 1 18 33 1 0.26
525 362 0 10 0 14 32 0 0.264
526 362 0 11 0 13 32 1 0.8
527 362 0 12 1 16 38 1 0.525
528 362 0 13 0 20 32 1 0.407
529 362 0 14 1 6 37 0 1.028
530 362 0 15 0 9 32 0 0.701
531 362 0 16 0 8 31 0 0.502
532 362 0 17 2 12 31 0 0.645
533 362 0 18 1 3 34 1 0.328
534 362 0 19 1 20 31 1 0.606
535 362 0 20 1 13 32 0 0.698
536 362 0 21 0 10 33 0 0.591
537 362 0 22 0 17 36 0 1.145
538 362 0 23 1 5 34 0 0.586
539 362 0 24 2 6 32 0 0.467
540 362 0 25 2 3 31 0 0.501
541 362 0 26 2 14 35 0 0.641
542 362 0 27 0 4 33 0 0.667
543 362 0 28 2 20 35 1 0.386
544 362 0 29 1 17 31 1 0.327
545 362 0 30 2 11 44 0 0.965
546 362 0 31 2 15 33 1 0.702
547 362 0 32 2 18 33 1 0.257
548 362 0 33 2 4 31 0 0.389
549 362 0 34 2 9 32 0 0.408
550 362 0 35 2 19 33 1 0.313
551 362 0 36 0 16 33 1 0.538
552 362 0 37 2 5 31 0 0.39
553 362 0 38 2 1 35 0 0.381
554 362 0 39 0 3 36 0 0.286
555 362 0 40 2 0 32 0 0.274
556 362 0 41 1 9 38 1 0.292
557 362 0 42 0 6 33 0 0.138
558 362 0 43 0 12 33 0 0.326
559 362 0 44 1 11 31 1 1.196
560 362 0 45 0 15 31 1 0.402
561 362 0 46 1 12 31 1 0.333
562 362 0 47 2 13 32 1 0.544
563 362 0 48 0 0 37 0 0.454
564 362 0 49 1 4 33 0 1.077
565 362 0 50 0 1 31 0 0.317
566 362 0 51 1 7 31 0 0.462
567 362 0 52 0 7 33 0 0.442
568 362 0 53 0 5 31 0 0.438
569 362 0 54 1 15 31 1 0.469
570 362 0 55 2 16 34 1 0.452
571 362 0 56 1 1 33 0 0.421
572 362 0 57 1 0 31 0 0.326
573 362 0 58 1 10 34 0 0.553
574 362 0 59 2 17 34 1 0.467
575 362 0 60 2 7 31 0 0.335
576 362 0 61 1 2 31 0 0.516
577 362 0 62 0 11 33 0 0.65
578 364 0 0 1 3 31 0 0.515
579 364 0 1 0 6 31 1 0.574
580 364 0 2 0 4 31 1 0.572
581 364 0 3 1 1 32 0 0.506
582 364 0 4 0 1 35 1 0.625
583 364 0 5 0 1 31 1 0.464
584 364 0 6 0 9 34 1 0.367
585 364 0 7 0 0 31 0 0.615
586 364 0 8 1 3 32 0 0.677
587 364 0 9 0 8 32 1 0.428
588 364 0 10 0 5 32 1 0.729
589 364 0 11 0 5 31 1 0.452
590 364 0 12 1 7 31 1 0.198
591 364 0 13 1 2 36 1 0.193
592 364 0 14 1 9 33 1 0.427
593 364 0 15 1 0 32 0 0.464
594 364 0 16 0 9 33 1 0.307
595 364 0 17 1 9 31 1 0.381
596 364 0 18 1 4 34 0 0.434
597 364 0 19 1 4 32 1 0.246
598 364 0 20 0 7 37 1 0.638
599 364 0 21 0 2 34 1 0.329
600 364 0 22 0 7 31 1 0.434
601 364 0 23 0 2 33 1 0.278
602 364 0 24 1 6 32 1 0.592
603 364 0 25 0 4 41 1 0.618
604 364 0 26 1 5 34 0 0.471
605 364 0 27 1 8 34 1 0.246
606 364 0 28 1 6 33 1 0.481
607 364 0 29 0 9 32 1 0.259
608 364 0 30 1 7 33 1 0.221
609 364 0 31 0 1 31 1 0.202
610 364 0 32 1 3 33 1 0.646
611 364 0 33 1 0 34 0 0.514
612 364 0 34 0 7 31 1 0.227
613 364 0 35 0 2 33 0 0.542
614 364 0 36 1 1 35 0 0.477
615 364 0 37 1 8 34 1 0.507
616 364 0 38 1 8 33 1 0.301
617 364 0 39 0 7 31 1 0.278
618 364 0 40 1 4 31 0 0.465
619 364 0 41 1 8 34 1 0.34
620 364 0 42 0 2 34 0 0.395
621 364 0 43 0 3 32 1 0.192
622 364 0 44 1 7 34 1 0.716
623 364 0 45 0 2 33 1 0.31
624 364 0 46 0 6 33 1 0.427
625 364 0 47 1 1 31 0 0.352
626 364 0 48 0 7 33 1 0.391
627 364 0 49 0 0 32 0 0.589
628 364 0 50 1 2 31 0 0.493
629 364 0 51 1 3 34 0 0.382
630 364 0 52 1 7 33 1 0.547
631 364 0 53 0 6 33 1 0.291
632 364 0 54 1 2 32 1 0.349
633 364 0 55 0 1 33 0 0.403
634 364 0 56 0 2 36 1 0.278
635 364 0 57 1 9 34 1 0.511
636 364 0 58 0 9 32 1 0.416
637 364 0 59 0 6 32 1 0.405
638 364 1 0 0 5 35 1 0.531
639 364 1 1 1 4 37 1 0.257
640 364 1 2 1 9 32 1 0.38
641 364 1 3 0 1 34 1 0.273
642 364 1 4 0 8 32 1 0.425
643 364 1 5 0 2 31 0 0.463
644 364 1 6 1 0 31 0 0.467
645 364 1 7 0 9 32 1 0.246
646 364 1 8 0 4 31 0 0.77
647 364 1 9 0 2 32 1 0.251
648 364 1 10 0 1 34 0 0.42
649 364 1 11 0 6 31 1 0.378
650 364 1 12 1 3 35 0 0.415
651 364 1 13 0 3 35 1 0.178
652 364 1 14 1 2 32 0 0.448
653 364 1 15 1 1 34 0 0.37
654 364 1 16 1 3 34 0 0.28
655 364 1 17 0 4 34 1 0.705
656 364 1 18 0 9 31 0 0.301
657 364 1 19 1 5 34 0 0.501
658 364 1 20 1 3 31 0 0.423
659 364 1 21 0 1 34 0 0.347
660 364 1 22 1 0 36 0 0.352
661 364 1 23 0 1 31 0 0.28
662 364 1 24 1 9 32 1 0.418
663 364 1 25 0 0 32 0 0.439
664 364 1 26 1 8 31 1 0.524
665 364 1 27 1 8 31 1 0.383
666 364 1 28 1 0 32 0 0.341
667 364 1 29 0 4 31 0 1.102
668 364 1 30 0 2 31 0 0.411
669 364 1 31 1 3 37 0 0.301
670 364 1 32 0 3 32 0 0.279
671 364 1 33 1 9 31 1 0.385
672 364 1 34 1 7 33 1 0.311
673 364 1 35 1 0 38 0 0.524
674 364 1 36 1 6 31 1 0.83
675 364 1 37 0 2 37 0 0.482
676 364 1 38 0 3 35 0 0.403
677 364 1 39 0 8 33 1 0.264
678 364 1 40 0 1 38 0 0.511
679 364 1 41 1 4 31 0 0.401
680 364 1 42 1 5 31 0 0.327
681 364 1 43 0 5 34 1 0.414
682 364 1 44 1 9 32 1 0.467
683 364 1 45 1 3 31 0 0.391
684 364 1 46 1 6 32 0 0.366
685 364 1 47 1 9 34 1 0.291
686 364 1 48 1 0 37 0 0.474
687 364 1 49 1 2 33 0 0.38
688 364 1 50 1 2 33 0 0.322
689 364 1 51 1 4 31 0 0.442
690 364 1 52 1 8 31 0 0.287
691 364 1 53 0 0 31 0 0.458
692 364 1 54 1 4 32 0 0.382
693 364 1 55 0 6 31 1 0.485
694 364 1 56 0 4 31 0 0.936
695 364 1 57 1 7 32 0 0.411
696 364 1 58 1 5 32 0 0.608
697 364 1 59 1 1 31 0 0.59
698 364 2 0 0 3 31 1 1.702
699 364 2 1 1 2 32 0 0.266
700 364 2 2 1 7 31 1 0.789
701 364 2 3 1 6 31 1 0.749
702 364 2 4 0 5 33 1 0.502
703 364 2 5 1 5 33 1 0.232
704 364 2 6 0 5 32 1 0.323
705 364 2 7 0 9 38 1 0.455
706 364 2 8 1 6 31 1 0.299
707 364 2 9 0 0 31 1 0.229
708 364 2 10 1 3 36 0 0.333
709 364 2 11 0 6 31 1 0.406
710 364 2 12 0 0 34 0 0.555
711 364 2 13 1 0 31 0 0.444
712 364 2 14 1 1 31 0 0.32
713 364 2 15 0 3 33 1 0.664
714 364 2 16 1 6 31 1 0.693
715 364 2 17 0 9 33 1 0.271
716 364 2 18 0 1 31 1 0.266
717 364 2 19 1 4 31 0 0.405
718 364 2 20 1 8 33 1 0.602
719 364 2 21 0 7 32 1 0.473
720 364 2 22 0 8 32 1 0.204
721 364 2 23 1 6 31 1 1.002
722 364 2 24 0 6 32 1 0.394
723 364 2 25 1 7 32 1 0.256
724 364 2 26 1 1 31 0 0.46
725 364 2 27 1 3 33 0 0.334
726 364 2 28 0 4 32 1 0.855
727 364 2 29 1 4 31 0 0.317
728 364 2 30 1 4 31 0 0.326
729 364 2 31 0 2 36 0 0.38
730 364 2 32 0 5 31 1 0.627
731 364 2 33 0 5 33 1 0.512
732 364 2 34 0 6 31 1 0.498
733 364 2 35 0 8 32 1 0.372
734 364 2 36 1 2 35 0 0.521
735 364 2 37 1 2 31 0 0.556
736 364 2 38 1 5 32 0 0.444
737 364 2 39 0 0 32 0 0.56
738 364 2 40 0 6 31 1 0.449
739 364 2 41 0 7 32 1 0.373
740 364 2 42 1 8 35 1 0.266
741 364 2 43 0 2 32 1 0.692
742 364 2 44 1 3 33 0 0.382
743 364 2 45 1 4 31 0 0.229
744 364 2 46 1 8 34 1 0.33
745 364 2 47 0 4 31 1 0.451
746 364 2 48 1 6 31 0 0.327
747 364 2 49 0 9 34 1 0.463
748 364 2 50 1 4 32 0 0.562
749 364 2 51 0 1 36 0 0.32
750 364 2 52 0 0 36 0 0.246
751 364 2 53 0 8 32 1 0.337
752 364 2 54 1 7 32 1 0.313
753 364 2 55 1 5 36 1 0.272
754 364 2 56 1 0 31 0 0.411
755 364 2 57 0 2 31 1 0.257
756 364 2 58 1 0 39 0 0.424
757 364 2 59 1 9 31 1 0.509
758 364 3 0 0 7 32 1 0.507
759 364 3 1 0 7 33 1 0.317
760 364 3 2 0 7 31 1 0.31
761 364 3 3 0 0 31 1 0.351
762 364 3 4 1 5 31 0 0.808
763 364 3 5 1 0 33 0 0.526
764 364 3 6 0 7 31 1 0.417
765 364 3 7 1 4 39 0 0.514
766 364 3 8 0 1 33 0 0.531
767 364 3 9 0 0 37 0 0.577
768 364 3 10 0 5 31 1 0.593
769 364 3 11 0 4 35 1 0.509
770 364 3 12 0 5 36 1 0.605
771 364 3 13 0 9 35 1 0.362
772 364 3 14 1 8 35 1 0.287
773 364 3 15 0 8 32 1 0.201
774 364 3 16 0 4 33 1 0.245
775 364 3 17 1 5 33 0 0.576
776 364 3 18 0 2 31 0 0.848
777 364 3 19 0 7 32 1 0.341
778 364 3 20 1 2 31 0 0.574
779 364 3 21 0 8 50 1 0.499
780 364 3 22 0 4 32 1 0.389
781 364 3 23 0 8 33 1 0.459
782 364 3 24 0 3 33 1 0.27
783 364 3 25 1 3 32 0 0.601
784 364 3 26 0 9 31 1 0.488
785 364 3 27 1 0 34 0 0.473
786 364 3 28 0 1 31 0 0.525
787 364 3 29 0 8 32 1 0.542
788 364 3 30 1 4 31 0 0.544
789 364 3 31 1 9 32 1 0.512
790 364 3 32 0 4 31 0 1.043
791 364 3 33 1 1 35 0 0.527
792 364 3 34 1 2 31 0 0.337
793 364 3 35 1 7 31 1 0.714
794 364 3 36 0 8 33 1 0.548
795 364 3 37 0 4 33 0 0.595
796 364 3 38 0 5 33 0 0.641
797 364 3 39 0 0 37 0 0.716
798 364 3 40 0 7 34 1 0.405
799 364 3 41 1 3 31 0 0.332
800 364 3 42 0 9 34 1 0.37
801 364 3 43 0 8 39 1 0.341
802 364 3 44 0 1 31 0 0.478
803 364 3 45 0 0 31 0 0.497
804 364 3 46 1 4 34 0 0.386
805 364 3 47 1 7 36 1 0.646
806 364 3 48 1 0 33 0 0.355
807 364 3 49 1 2 32 0 0.33
808 364 3 50 0 7 31 1 0.323
809 364 3 51 1 8 33 1 0.346
810 364 3 52 0 3 34 0 0.704
811 364 3 53 0 1 32 0 0.363
812 364 3 54 1 3 33 0 0.29
813 364 3 55 1 1 35 0 0.282
814 364 3 56 0 1 38 0 0.288
815 364 3 57 0 0 35 0 0.296
816 364 3 58 0 4 34 0 0.592
817 364 3 59 0 5 31 1 0.56
818 364 4 0 1 5 35 0 0.472
819 364 4 1 0 4 31 0 1.068
820 364 4 2 0 8 32 1 0.394
821 364 4 3 0 9 32 1 0.56
822 364 4 4 0 4 36 1 0.286
823 364 4 5 1 8 31 0 0.264
824 364 4 6 1 4 31 1 0.163
825 364 4 7 1 8 38 1 0.238
826 364 4 8 1 5 34 1 0.248
827 364 4 9 1 2 34 0 0.786
828 364 4 10 1 0 31 0 0.491
829 364 4 11 1 5 37 0 0.331
830 364 4 12 1 5 32 1 0.467
831 364 4 13 1 2 34 0 0.821
832 364 4 14 1 7 35 1 0.394
833 364 4 15 1 0 38 0 0.413
834 364 4 16 0 6 33 1 0.529
835 364 4 17 1 4 31 0 0.355
836 364 4 18 0 9 34 1 0.217
837 364 4 19 1 9 31 1 0.406
838 364 4 20 1 8 36 1 0.217
839 364 4 21 0 8 32 1 0.182
840 364 4 22 0 5 32 1 0.195
841 364 4 23 0 7 35 1 0.19
842 364 4 24 1 3 31 1 0.188
843 364 4 25 0 3 32 1 0.762
844 364 4 26 1 5 31 1 0.915
845 364 4 27 1 9 34 1 0.501
846 364 4 28 0 8 32 1 0.295
847 364 4 29 1 1 32 0 0.545
848 364 4 30 0 5 34 1 0.592
849 364 4 31 1 5 31 1 0.319
850 364 4 32 0 3 31 1 0.297
851 364 4 33 1 6 31 1 0.562
852 364 4 34 0 0 32 0 0.578
853 364 4 35 1 7 32 1 0.658
854 364 4 36 1 8 32 1 0.334
855 364 4 37 0 1 31 0 0.63
856 364 4 38 0 8 31 1 0.484
857 364 4 39 0 2 33 0 0.535
858 364 4 40 1 3 31 0 0.36
859 364 4 41 1 5 33 0 0.319
860 364 4 42 1 6 31 1 1.318
861 364 4 43 0 0 33 0 0.427
862 364 4 44 1 1 31 0 0.416
863 364 4 45 0 7 31 1 0.342
864 364 4 46 1 5 32 0 0.329
865 364 4 47 0 3 31 0 0.466
866 364 4 48 0 0 35 0 0.308
867 364 4 49 1 2 31 0 0.254
868 364 4 50 1 6 34 0 0.44
869 364 4 51 1 8 31 1 0.285
870 364 4 52 1 7 34 1 0.246
871 364 4 53 1 1 32 0 0.401
872 364 4 54 0 8 33 1 0.262
873 364 4 55 1 9 32 1 0.208
874 364 4 56 0 3 31 0 0.446
875 364 4 57 1 6 35 1 0.592
876 364 4 58 0 6 32 1 0.479
877 364 4 59 0 6 32 1 0.226
878 364 5 0 1 2 35 0 0.396
879 364 5 1 0 9 34 1 0.177
880 364 5 2 1 6 31 0 0.287
881 364 5 3 1 9 39 1 0.229
882 364 5 4 1 5 33 0 0.576
883 364 5 5 0 7 31 1 0.144
884 364 5 6 1 3 33 1 0.174
885 364 5 7 1 6 32 0 0.669
886 364 5 8 1 4 34 0 0.472
887 364 5 9 1 3 36 0 0.505
888 364 5 10 0 6 35 1 0.697
889 364 5 11 0 3 33 0 0.596
890 364 5 12 0 6 31 1 0.259
891 364 5 13 0 9 31 1 0.446
892 364 5 14 1 7 31 1 0.611
893 364 5 15 1 6 41 1 0.364
894 364 5 16 1 6 31 1 0.515
895 364 5 17 1 3 33 0 0.484
896 364 5 18 1 8 35 1 0.325
897 364 5 19 1 7 32 1 0.349
898 364 5 20 1 1 32 1 0.181
899 364 5 21 0 4 32 0 0.722
900 364 5 22 0 9 33 1 0.396
901 364 5 23 1 6 31 0 0.275
902 364 5 24 0 3 31 0 0.462
903 364 5 25 0 6 32 1 0.641
904 364 5 26 0 3 32 0 1.342
905 364 5 27 0 6 36 1 0.608
906 364 5 28 1 4 32 0 0.413
907 364 5 29 1 5 36 0 0.528
908 364 5 30 0 3 31 0 0.546
909 364 5 31 1 1 36 0 0.432
910 364 5 32 1 4 34 0 0.323
911 364 5 33 0 9 31 1 0.413
912 364 5 34 1 8 31 1 0.77
913 364 5 35 0 0 31 0 0.38
914 364 5 36 1 6 32 1 0.674
915 364 5 37 1 2 31 0 0.447
916 364 5 38 1 7 38 1 0.255
917 364 5 39 1 5 32 0 0.516
918 364 5 40 0 8 31 1 0.485
919 364 5 41 0 2 32 0 0.616
920 364 5 42 0 7 31 1 0.423
921 364 5 43 1 3 31 0 0.333
922 364 5 44 0 8 31 1 0.325
923 364 5 45 0 3 34 0 0.493
924 364 5 46 1 0 31 0 0.336
925 364 5 47 0 5 32 1 0.488
926 364 5 48 1 1 31 0 0.267
927 364 5 49 0 3 32 1 0.39
928 364 5 50 0 9 31 1 0.413
929 364 5 51 0 5 32 1 0.61
930 364 5 52 1 6 32 0 0.48
931 364 5 53 0 9 38 1 0.239
932 364 5 54 1 4 32 0 0.283
933 364 5 55 0 6 32 1 0.277
934 364 5 56 0 9 33 1 0.639
935 364 5 57 0 4 39 0 0.696
936 364 5 58 1 9 31 1 0.563
937 364 5 59 1 4 31 0 0.453
938 364 6 0 1 3 35 0 0.408
939 364 6 1 0 4 33 0 0.829
940 364 6 2 1 1 32 0 0.26
941 364 6 3 0 5 37 1 0.444
942 364 6 4 0 0 32 0 0.416
943 364 6 5 0 5 31 1 0.374
944 364 6 6 0 4 31 0 0.621
945 364 6 7 0 6 31 1 0.78
946 364 6 8 0 8 32 1 0.356
947 364 6 9 0 1 31 0 0.636
948 364 6 10 1 1 48 0 0.32
949 364 6 11 0 3 35 0 0.247
950 364 6 12 1 6 33 0 0.369
951 364 6 13 0 2 32 0 0.456
952 364 6 14 1 9 33 1 0.348
953 364 6 15 0 2 33 0 0.419
954 364 6 16 1 9 32 1 0.376
955 364 6 17 0 5 32 0 0.944
956 364 6 18 0 6 32 1 0.29
957 364 6 19 0 9 31 1 0.333
958 364 6 20 1 2 33 0 0.436
959 364 6 21 0 1 32 0 0.329
960 364 6 22 1 7 33 1 0.464
961 364 6 23 1 6 31 1 0.628
962 364 6 24 0 1 34 0 0.464
963 364 6 25 1 0 31 0 0.324
964 364 6 26 0 4 34 0 0.235
965 364 6 27 1 5 32 0 0.359
966 364 6 28 0 7 33 1 0.366
967 364 6 29 1 8 43 1 0.575
968 364 6 30 0 2 33 0 0.542
969 364 6 31 1 3 34 0 0.285
970 364 6 32 1 5 41 0 0.225
971 364 6 33 1 9 31 1 0.222
972 364 6 34 1 0 31 0 0.475
973 364 6 35 0 8 31 0 0.431
974 364 6 36 0 8 31 1 0.356
975 364 6 37 1 7 31 1 0.765
976 364 6 38 0 6 33 1 0.373
977 364 6 39 1 6 32 1 0.252
978 364 6 40 1 1 31 0 0.743
979 364 6 41 1 2 32 0 0.304
980 364 6 42 1 0 33 0 0.233
981 364 6 43 1 9 40 1 0.368
982 364 6 44 0 1 31 0 0.359
983 364 6 45 1 1 39 0 0.442
984 364 6 46 0 6 32 1 0.543
985 364 6 47 0 1 37 0 0.541
986 364 6 48 0 5 32 1 0.526
987 364 6 49 0 0 33 0 0.414
988 364 6 50 0 7 31 1 0.403
989 364 6 51 1 1 33 0 0.296
990 364 6 52 1 7 32 1 0.402
991 364 6 53 0 4 31 0 0.632
992 364 6 54 0 5 39 1 0.481
993 364 6 55 1 2 31 0 0.341
994 364 6 56 0 6 31 1 0.537
995 364 6 57 0 0 34 0 0.424
996 364 6 58 0 8 34 1 0.348
997 364 6 59 1 0 31 0 0.325
998 364 7 0 1 3 31 0 0.474
999 364 7 1 1 9 34 1 0.348
1000 364 7 2 1 8 31 1 0.468
1001 364 7 3 0 0 31 0 0.376
1002 364 7 4 0 3 31 0 0.319
1003 364 7 5 1 9 33 1 0.36
1004 364 7 6 0 3 32 0 0.367
1005 364 7 7 0 5 31 0 0.277
1006 364 7 8 0 7 33 1 0.223
1007 364 7 9 1 9 34 1 0.234
1008 364 7 10 0 3 31 0 0.614
1009 364 7 11 0 6 34 1 0.675
1010 364 7 12 0 7 31 1 0.383
1011 364 7 13 1 0 33 0 0.325
1012 364 7 14 1 0 32 0 0.365
1013 364 7 15 1 4 32 0 0.34
1014 364 7 16 1 0 31 0 0.285
1015 364 7 17 1 7 44 1 0.432
1016 364 7 18 1 4 39 0 0.464
1017 364 7 19 1 2 33 0 0.338
1018 364 7 20 1 0 31 0 0.315
1019 364 7 21 0 5 31 1 0.468
1020 364 7 22 0 2 36 0 0.405
1021 364 7 23 0 4 33 1 0.394
1022 364 7 24 0 2 32 0 0.56
1023 364 7 25 0 7 31 1 0.481
1024 364 7 26 1 9 31 1 0.517
1025 364 7 27 0 3 32 0 0.902
1026 364 7 28 1 8 33 1 0.553
1027 364 7 29 1 9 31 1 0.57
1028 364 7 30 0 2 32 0 0.506
1029 364 7 31 0 2 31 0 0.573
1030 364 7 32 1 1 33 0 0.412
1031 364 7 33 1 2 31 0 0.384
1032 364 7 34 1 8 32 1 0.437
1033 364 7 35 1 8 31 1 0.539
1034 364 7 36 0 4 31 1 1.324
1035 364 7 37 0 3 40 0 0.604
1036 364 7 38 1 2 34 0 0.281
1037 364 7 39 0 0 31 0 0.34
1038 364 7 40 1 1 33 0 0.251
1039 364 7 41 1 7 33 1 0.517
1040 364 7 42 1 5 31 0 0.248
1041 364 7 43 1 7 32 1 0.643
1042 364 7 44 0 2 32 0 0.656
1043 364 7 45 0 9 34 1 0.284
1044 364 7 46 1 1 35 0 0.484
1045 364 7 47 0 5 32 1 0.502
1046 364 7 48 0 9 32 1 0.264
1047 364 7 49 0 1 32 1 0.355
1048 364 7 50 1 5 31 0 1.227
1049 364 7 51 0 0 32 0 0.739
1050 364 7 52 0 1 31 0 0.269
1051 364 7 53 0 7 38 1 0.372
1052 364 7 54 1 2 34 0 0.298
1053 364 7 55 0 8 32 1 0.787
1054 364 7 56 1 7 32 1 0.732
1055 364 7 57 1 1 32 0 0.485
1056 364 7 58 1 6 31 1 0.521
1057 364 7 59 0 0 31 0 0.378
1058 365 0 0 1 2 31 0 1.205
1059 365 0 1 1 8 37 1 0.745
1060 365 0 2 0 9 35 0 0.592
1061 365 0 3 0 4 32 0 1.452
1062 365 0 4 0 0 33 0 0.939
1063 365 0 5 1 8 33 1 0.557
1064 365 0 6 1 7 38 1 1.29
1065 365 0 7 0 5 33 0 0.638
1066 365 0 8 0 8 35 0 0.425
1067 365 0 9 0 4 31 0 0.334
1068 365 0 10 1 0 32 1 0.88
1069 365 0 11 0 9 31 1 1.236
1070 365 0 12 1 9 33 1 0.537
1071 365 0 13 0 0 34 0 0.808
1072 365 0 14 0 2 40 0 0.665
1073 365 0 15 1 1 32 1 0.573
1074 365 0 16 0 7 32 1 1.591
1075 365 0 17 1 8 32 1 1.01
1076 365 0 18 0 9 31 1 3.426
1077 365 0 19 0 0 32 0 1.004
1078 365 0 20 1 0 31 1 0.493
1079 365 0 21 1 4 32 1 2.143
1080 365 0 22 0 9 31 0 1.159
1081 365 0 23 1 3 31 1 1.354
1082 365 0 24 1 0 38 1 4.042
1083 365 0 25 1 2 33 1 0.685
1084 365 0 26 0 6 31 1 0.611
1085 365 0 27 1 5 31 1 0.656
1086 365 0 28 0 9 31 0 0.43
1087 365 0 29 1 6 32 1 0.658
1088 365 0 30 1 5 33 1 0.751
1089 365 0 31 1 9 32 1 0.456
1090 365 0 32 0 6 37 0 0.537
1091 365 0 33 0 1 32 0 0.521
1092 365 0 34 0 5 37 0 0.599
1093 365 0 35 0 9 31 0 0.407
1094 365 0 36 1 1 35 1 0.73
1095 365 0 37 1 5 41 1 0.927
1096 365 0 38 1 1 39 1 0.51
1097 365 0 39 0 3 32 1 0.203
1098 365 0 40 1 9 33 1 0.535
1099 365 0 41 0 7 32 0 0.696
1100 365 0 42 0 1 34 0 0.546
1101 365 0 43 1 6 31 1 0.659
1102 365 0 44 1 6 32 1 2.463
1103 365 0 45 0 7 31 0 0.908
1104 365 0 46 1 6 34 1 0.542
1105 365 0 47 1 2 32 1 0.559
1106 365 0 48 0 2 31 0 0.655
1107 365 0 49 1 3 31 1 0.909
1108 365 0 50 1 8 31 1 0.865
1109 365 0 51 1 7 37 1 1.01
1110 365 0 52 0 1 31 0 0.546
1111 365 0 53 0 1 31 0 0.643
1112 365 0 54 0 6 33 0 0.848
1113 365 0 55 0 8 32 0 0.349
1114 365 0 56 1 5 31 1 0.565
1115 365 0 57 0 4 31 0 0.87
1116 365 0 58 0 0 33 0 0.506
1117 365 0 59 1 6 32 1 0.62
1118 365 1 0 1 9 31 0 0.722
1119 365 1 1 0 2 34 0 0.843
1120 365 1 2 0 7 39 0 0.509
1121 365 1 3 0 0 31 0 0.735
1122 365 1 4 1 7 32 1 0.601
1123 365 1 5 0 1 46 1 1.376
1124 365 1 6 1 1 34 0 0.902
1125 365 1 7 1 8 33 1 0.602
1126 365 1 8 1 0 32 0 0.616
1127 365 1 9 0 1 31 0 1.383
1128 365 1 10 0 3 33 1 0.629
1129 365 1 11 0 2 31 1 0.563
1130 365 1 12 1 3 31 1 0.915
1131 365 1 13 1 9 33 1 0.182
1132 365 1 14 1 1 31 0 0.084
1133 365 1 15 0 5 35 1 0.115
1134 365 1 16 1 3 31 0 0.084
1135 365 1 17 1 4 38 1 0.081
1136 365 1 18 1 2 31 1 0.163
1137 365 1 19 1 2 33 1 0.081
1138 365 1 20 0 9 33 1 0.049
1139 365 1 21 0 9 34 1 0.066
1140 365 1 22 0 9 33 1 0.003
1141 365 1 23 1 0 34 1 0.022
1142 365 1 24 0 3 31 1 0.01
1143 365 1 25 0 6 33 1 0.029
1144 365 1 26 0 8 31 0 0.064
1145 365 1 27 0 3 31 1 0.098
1146 365 1 28 0 3 31 0 3.908
1147 365 1 29 0 0 31 1 1.021
1148 365 1 30 0 3 31 0 1.021
1149 365 1 31 0 4 31 0 0.557
1150 365 1 32 0 4 35 0 0.556
1151 365 1 33 1 9 32 1 0.508
1152 365 1 34 0 5 38 1 0.523
1153 365 1 35 0 0 31 0 1.261
1154 365 1 36 1 1 36 1 1.41
1155 365 1 37 0 9 33 1 0.515
1156 365 1 38 0 6 31 1 0.677
1157 365 1 39 1 9 32 0 0.992
1158 365 1 40 0 4 33 1 0.096
1159 365 1 41 0 3 34 1 0.159
1160 365 1 42 1 2 33 1 1.053
1161 365 1 43 1 2 34 0 0.555
1162 365 1 44 1 2 34 1 0.938
1163 365 1 45 0 2 32 0 0.813
1164 365 1 46 0 1 35 0 0.386
1165 365 1 47 1 0 31 1 0.393
1166 365 1 48 1 2 32 1 0.447
1167 365 1 49 0 2 32 0 0.531
1168 365 1 50 1 5 31 1 1.188
1169 365 1 51 0 2 32 0 0.51
1170 365 1 52 1 9 34 1 0.11
1171 365 1 53 0 1 34 1 0.11
1172 365 1 54 1 3 31 1 0.446
1173 365 1 55 0 5 35 0 0.512
1174 365 1 56 1 8 35 1 0.592
1175 365 1 57 0 3 31 0 0.447
1176 365 1 58 1 8 33 1 0.451
1177 365 1 59 0 2 31 0 0.391
1178 365 2 0 0 6 32 0 0.835
1179 365 2 1 0 2 34 0 0.712
1180 365 2 2 0 7 33 0 0.37
1181 365 2 3 1 5 31 1 0.426
1182 365 2 4 0 3 33 0 0.478
1183 365 2 5 0 2 32 0 0.433
1184 365 2 6 1 7 33 1 0.629
1185 365 2 7 1 8 46 1 0.442
1186 365 2 8 1 3 32 1 0.462
1187 365 2 9 0 8 34 0 0.432
1188 365 2 10 0 3 32 0 0.389
1189 365 2 11 1 7 38 1 0.632
1190 365 2 12 1 0 31 1 0.582
1191 365 2 13 1 6 31 1 0.421
1192 365 2 14 1 5 33 1 0.57
1193 365 2 15 1 6 31 1 0.427
1194 365 2 16 0 1 32 0 0.448
1195 365 2 17 0 0 31 0 0.564
1196 365 2 18 0 3 33 0 0.579
1197 365 2 19 1 0 33 1 0.45
1198 365 2 20 1 7 33 1 0.741
1199 365 2 21 1 6 35 1 0.461
1200 365 2 22 0 1 31 0 0.529
1201 365 2 23 1 6 31 1 0.53
1202 365 2 24 1 5 32 1 0.452
1203 365 2 25 1 9 34 1 0.822
1204 365 2 26 0 1 31 0 0.366
1205 365 2 27 0 0 31 0 0.565
1206 365 2 28 0 9 34 0 0.612
1207 365 2 29 0 1 34 0 0.529
1208 365 2 30 0 5 32 0 0.626
1209 365 2 31 0 0 31 0 0.384
1210 365 2 32 1 5 33 1 0.486
1211 365 2 33 0 9 34 0 0.567
1212 365 2 34 0 2 31 0 0.44
1213 365 2 35 0 7 33 0 0.332
1214 365 2 36 1 2 31 1 0.452
1215 365 2 37 1 0 32 1 0.408
1216 365 2 38 1 6 31 1 0.335
1217 365 2 39 0 0 33 0 0.406
1218 365 2 40 1 0 32 1 0.492
1219 365 2 41 1 0 34 1 0.494
1220 365 2 42 0 6 39 0 0.46
1221 365 2 43 0 2 31 0 0.64
1222 365 2 44 1 2 31 1 0.462
1223 365 2 45 0 4 31 0 0.786
1224 365 2 46 1 8 32 1 0.586
1225 365 2 47 1 7 32 1 1.305
1226 365 2 48 0 3 32 0 0.303
1227 365 2 49 0 5 34 0 0.199
1228 365 2 50 1 3 32 0 0.148
1229 365 2 51 1 5 31 0 0.163
1230 365 2 52 1 5 31 0 0.37
1231 365 2 53 0 6 41 0 0.067
1232 365 2 54 0 5 31 0 0.257
1233 365 2 55 1 9 31 0 0.124
1234 365 2 56 1 0 36 0 0.026
1235 365 2 57 0 2 32 0 0.221
1236 365 2 58 0 8 31 0 0.314
1237 365 2 59 1 5 32 1 0.323
1238 365 3 0 1 1 31 1 0.433
1239 365 3 1 0 3 32 1 0.181
1240 365 3 2 0 7 31 1 0.147
1241 365 3 3 0 1 35 0 0.16
1242 365 3 4 1 5 31 1 0.223
1243 365 3 5 0 7 31 1 0.348
1244 365 3 6 1 4 34 1 0.178
1245 365 3 7 1 9 31 1 0.24
1246 365 3 8 0 8 36 1 0.602
1247 365 3 9 0 6 32 1 0.072
1248 365 3 10 1 1 32 1 0.298
1249 365 3 11 1 4 32 1 0.051
1250 365 3 12 0 9 32 0 0.789
1251 365 3 13 1 7 31 1 0.638
1252 365 3 14 0 9 31 0 0.076
1253 365 3 15 0 2 31 0 0.046
1254 365 3 16 1 8 35 1 0.479
1255 365 3 17 1 5 32 1 0.61
1256 365 3 18 1 9 32 1 0.464
1257 365 3 19 0 0 32 0 0.451
1258 365 3 20 0 8 32 0 0.407
1259 365 3 21 0 3 35 0 0.443
1260 365 3 22 0 4 31 0 0.352
1261 365 3 23 1 2 34 1 0.599
1262 365 3 24 0 1 31 0 0.47
1263 365 3 25 1 6 32 1 0.537
1264 365 3 26 0 4 32 0 0.49
1265 365 3 27 1 9 32 1 0.493
1266 365 3 28 0 0 31 0 0.416
1267 365 3 29 0 5 32 0 0.453
1268 365 3 30 1 4 37 0 0.102
1269 365 3 31 1 0 31 1 0.487
1270 365 3 32 0 8 32 1 0.154
1271 365 3 33 0 0 31 0 0.073
1272 365 3 34 0 2 31 0 0.331
1273 365 3 35 1 8 32 1 0.515
1274 365 3 36 1 3 35 1 0.499
1275 365 3 37 1 7 31 1 0.966
1276 365 3 38 1 0 31 1 0.488
1277 365 3 39 0 8 31 1 0.268
1278 365 3 40 0 0 31 1 0.455
1279 365 3 41 0 5 32 1 1.738
1280 365 3 42 0 6 32 0 0.464
1281 365 3 43 0 5 32 1 1.155
1282 365 3 44 1 6 34 1 0.428
1283 365 3 45 0 4 34 1 0.24
1284 365 3 46 0 2 31 0 0.604
1285 365 3 47 1 4 36 0 0.312
1286 365 3 48 1 4 31 1 0.418
1287 365 3 49 1 2 31 1 0.423
1288 365 3 50 1 4 34 1 0.363
1289 365 3 51 0 2 31 1 0.147
1290 365 3 52 1 4 35 1 0.432
1291 365 3 53 0 1 34 0 0.387
1292 365 3 54 1 1 31 1 0.618
1293 365 3 55 0 8 34 0 0.839
1294 365 3 56 1 8 33 1 0.781
1295 365 3 57 1 1 31 1 0.677
1296 365 3 58 1 3 31 1 0.37
1297 365 3 59 0 1 35 1 0.103
1298 365 4 0 1 9 31 0 0.107
1299 365 4 1 0 1 31 0 0.266
1300 365 4 2 1 2 34 1 0.147
1301 365 4 3 1 4 31 1 0.098
1302 365 4 4 1 3 34 1 0.418
1303 365 4 5 0 4 32 1 0.103
1304 365 4 6 1 3 33 1 0.375
1305 365 4 7 1 5 32 1 0.398
1306 365 4 8 1 7 32 1 0.132
1307 365 4 9 0 0 31 1 0.083
1308 365 4 10 1 9 40 1 0.368
1309 365 4 11 1 9 32 1 0.327
1310 365 4 12 1 8 33 1 0.111
1311 365 4 13 1 9 31 1 0.079
1312 365 4 14 1 8 31 1 0.049
1313 365 4 15 0 1 32 1 0.083
1314 365 4 16 1 6 31 1 0.389
1315 365 4 17 0 6 32 0 0.331
1316 365 4 18 0 8 31 0 0.356
1317 365 4 19 0 9 33 0 0.363
1318 365 4 20 1 9 31 1 0.37
1319 365 4 21 1 7 31 1 0.362
1320 365 4 22 0 7 33 0 0.304
1321 365 4 23 1 5 33 1 0.441
1322 365 4 24 1 3 31 1 0.365
1323 365 4 25 0 1 34 0 0.339
1324 365 4 26 0 0 33 0 0.331
1325 365 4 27 0 6 42 0 0.365
1326 365 4 28 1 7 31 1 0.677
1327 365 4 29 0 8 31 0 0.417
1328 365 4 30 1 5 31 1 0.463
1329 365 4 31 1 9 41 1 0.429
1330 365 4 32 1 4 33 1 0.561
1331 365 4 33 0 5 31 0 0.577
1332 365 4 34 0 0 35 0 0.687
1333 365 4 35 0 8 33 0 0.346
1334 365 4 36 0 6 31 0 0.29
1335 365 4 37 0 7 31 0 0.477
1336 365 4 38 1 8 31 1 0.352
1337 365 4 39 0 0 33 0 0.423
1338 365 4 40 1 1 33 1 0.524
1339 365 4 41 1 1 31 1 0.558
1340 365 4 42 1 1 31 1 0.415
1341 365 4 43 1 0 32 1 0.388
1342 365 4 44 0 2 31 0 0.315
1343 365 4 45 0 7 33 0 0.387
1344 365 4 46 0 8 31 0 0.554
1345 365 4 47 1 4 31 1 0.411
1346 365 4 48 0 6 32 0 0.416
1347 365 4 49 1 2 34 1 0.404
1348 365 4 50 0 2 33 0 0.426
1349 365 4 51 1 6 38 1 0.395
1350 365 4 52 1 6 34 1 0.415
1351 365 4 53 0 4 31 0 0.357
1352 365 4 54 1 5 32 1 0.429
1353 365 4 55 1 2 32 1 0.337
1354 365 4 56 1 6 31 1 0.426
1355 365 4 57 0 7 31 0 0.448
1356 365 4 58 1 3 31 1 0.432
1357 365 4 59 1 0 33 1 0.116
1358 365 5 0 1 4 31 1 0.644
1359 365 5 1 1 6 32 1 0.385
1360 365 5 2 1 1 31 1 0.488
1361 365 5 3 1 7 31 1 0.331
1362 365 5 4 0 4 31 0 0.324
1363 365 5 5 0 6 33 0 0.364
1364 365 5 6 1 3 31 1 0.385
1365 365 5 7 1 4 35 0 0.117
1366 365 5 8 0 4 31 1 0.838
1367 365 5 9 0 2 32 0 0.795
1368 365 5 10 1 3 31 1 0.535
1369 365 5 11 1 3 32 1 0.36
1370 365 5 12 0 4 37 0 0.38
1371 365 5 13 0 7 33 0 0.722
1372 365 5 14 0 5 34 0 0.46
1373 365 5 15 1 2 33 0 0.206
1374 365 5 16 0 3 33 0 0.185
1375 365 5 17 1 0 33 1 2.23
1376 365 5 18 1 1 33 1 0.554
1377 365 5 19 0 9 34 0 0.39
1378 365 5 20 0 3 31 0 0.493
1379 365 5 21 0 0 35 0 0.349
1380 365 5 22 1 4 32 1 0.469
1381 365 5 23 0 3 31 0 0.425
1382 365 5 24 1 4 31 1 0.382
1383 365 5 25 0 5 39 0 0.56
1384 365 5 26 0 2 34 0 0.527
1385 365 5 27 1 7 35 1 0.446
1386 365 5 28 0 4 31 0 0.37
1387 365 5 29 1 9 31 1 0.36
1388 365 5 30 1 6 31 1 0.463
1389 365 5 31 1 4 33 0 0.61
1390 365 5 32 0 8 32 0 0.558
1391 365 5 33 1 1 31 1 0.751
1392 365 5 34 0 7 35 0 0.63
1393 365 5 35 0 8 35 0 0.402
1394 365 5 36 0 8 31 0 0.424
1395 365 5 37 0 7 31 0 0.462
1396 365 5 38 0 6 32 0 0.353
1397 365 5 39 1 3 32 1 0.281
1398 365 5 40 1 2 31 1 0.211
1399 365 5 41 0 7 31 0 0.4
1400 365 5 42 1 5 34 1 0.35
1401 365 5 43 1 4 32 1 0.533
1402 365 5 44 1 4 31 1 0.391
1403 365 5 45 1 7 33 1 0.413
1404 365 5 46 0 1 32 0 0.527
1405 365 5 47 0 0 31 0 0.464
1406 365 5 48 1 7 31 1 0.66
1407 365 5 49 0 5 34 0 0.431
1408 365 5 50 1 2 33 1 0.499
1409 365 5 51 0 5 31 0 0.47
1410 365 5 52 1 3 38 1 0.454
1411 365 5 53 1 6 31 1 0.548
1412 365 5 54 1 7 31 1 0.101
1413 365 5 55 0 6 36 1 0.083
1414 365 5 56 1 5 31 1 0.373
1415 365 5 57 1 2 31 0 3.196
1416 365 5 58 0 9 34 0 0.381
1417 365 5 59 0 3 37 0 0.24
1418 365 6 0 0 5 33 0 1.099
1419 365 6 1 1 6 31 1 0.792
1420 365 6 2 0 4 33 0 0.447
1421 365 6 3 1 2 31 1 0.324
1422 365 6 4 1 4 35 1 0.491
1423 365 6 5 1 3 31 1 0.59
1424 365 6 6 1 8 32 1 0.405
1425 365 6 7 0 9 35 0 0.393
1426 365 6 8 1 1 31 1 0.48
1427 365 6 9 0 9 32 0 0.434
1428 365 6 10 1 3 33 1 0.374
1429 365 6 11 0 7 32 0 0.413
1430 365 6 12 1 0 31 0 1.059
1431 365 6 13 0 5 32 0 0.353
1432 365 6 14 0 3 35 0 0.359
1433 365 6 15 0 5 31 0 0.358
1434 365 6 16 0 8 34 0 0.364
1435 365 6 17 1 1 32 0 3.459
1436 365 6 18 1 7 31 0 0.268
1437 365 6 19 0 9 37 0 1.715
1438 365 6 20 0 8 35 0 0.408
1439 365 6 21 0 0 35 0 0.684
1440 365 6 22 0 4 33 0 0.375
1441 365 6 23 0 1 34 0 0.411
1442 365 6 24 1 8 32 1 0.319
1443 365 6 25 1 5 31 1 0.313
1444 365 6 26 1 4 32 1 0.337
1445 365 6 27 1 7 31 1 0.426
1446 365 6 28 0 4 32 0 0.335
1447 365 6 29 0 4 32 0 0.359
1448 365 6 30 1 6 37 1 0.458
1449 365 6 31 0 5 35 0 0.332
1450 365 6 32 0 6 34 0 0.339
1451 365 6 33 1 0 34 1 0.426
1452 365 6 34 0 6 31 0 0.383
1453 365 6 35 0 5 33 0 0.357
1454 365 6 36 1 8 32 1 0.348
1455 365 6 37 0 3 32 0 0.452
1456 365 6 38 0 5 32 0 0.376
1457 365 6 39 0 4 32 0 0.351
1458 365 6 40 0 6 34 0 0.277
1459 365 6 41 1 5 31 1 0.48
1460 365 6 42 1 7 39 1 0.383
1461 365 6 43 0 4 32 0 0.405
1462 365 6 44 0 8 31 0 0.347
1463 365 6 45 1 9 32 1 0.369
1464 365 6 46 1 0 35 1 0.55
1465 365 6 47 1 1 31 1 0.247
1466 365 6 48 0 9 37 0 0.383
1467 365 6 49 1 4 38 1 0.455
1468 365 6 50 1 2 31 1 0.411
1469 365 6 51 1 8 31 1 0.337
1470 365 6 52 0 3 32 0 0.345
1471 365 6 53 1 4 31 1 0.353
1472 365 6 54 0 6 33 0 0.456
1473 365 6 55 0 7 32 0 0.492
1474 365 6 56 0 8 33 0 0.319
1475 365 6 57 1 2 35 1 0.406
1476 365 6 58 0 5 33 0 0.443
1477 365 6 59 0 1 31 0 0.399
1478 365 7 0 0 1 35 0 0.476
1479 365 7 1 0 7 31 0 0.32
1480 365 7 2 1 6 31 1 0.313
1481 365 7 3 1 1 31 0 0.467
1482 365 7 4 1 1 32 1 0.246
1483 365 7 5 0 1 32 0 0.209
1484 365 7 6 0 9 31 0 0.239
1485 365 7 7 1 5 31 1 0.107
1486 365 7 8 1 4 31 1 0.22
1487 365 7 9 0 7 34 0 0.247
1488 365 7 10 1 6 31 1 0.307
1489 365 7 11 1 5 31 1 0.621
1490 365 7 12 1 1 34 1 1.113
1491 365 7 13 0 7 31 1 0.726
1492 365 7 14 1 8 37 1 0.397
1493 365 7 15 0 0 33 0 0.178
1494 365 7 16 0 2 31 0 0.256
1495 365 7 17 1 0 35 1 0.538
1496 365 7 18 0 3 31 0 0.475
1497 365 7 19 0 3 31 0 0.863
1498 365 7 20 1 7 33 1 0.42
1499 365 7 21 0 4 32 0 0.505
1500 365 7 22 1 9 32 1 0.523
1501 365 7 23 0 8 33 0 0.38
1502 365 7 24 1 8 34 1 0.641
1503 365 7 25 1 0 31 1 1.615
1504 365 7 26 1 7 31 1 0.506
1505 365 7 27 0 2 34 0 0.555
1506 365 7 28 1 8 34 1 0.586
1507 365 7 29 0 8 33 0 0.425
1508 365 7 30 0 4 31 0 0.91
1509 365 7 31 1 0 32 1 0.37
1510 365 7 32 0 8 31 0 0.457
1511 365 7 33 1 8 32 1 0.669
1512 365 7 34 0 9 34 0 0.44
1513 365 7 35 0 6 32 0 0.908
1514 365 7 36 1 3 33 1 0.623
1515 365 7 37 1 0 32 1 1.133
1516 365 7 38 0 9 34 0 0.456
1517 365 7 39 1 2 31 1 0.812
1518 365 7 40 1 3 34 1 0.674
1519 365 7 41 1 6 32 1 0.43
1520 365 7 42 1 8 33 1 0.37
1521 365 7 43 1 7 33 1 0.376
1522 365 7 44 1 1 32 1 0.319
1523 365 7 45 0 3 33 0 0.375
1524 365 7 46 0 6 31 0 0.318
1525 365 7 47 1 9 32 1 0.343
1526 365 7 48 1 9 31 1 0.303
1527 365 7 49 1 3 36 1 0.294
1528 365 7 50 0 6 33 0 0.399
1529 365 7 51 1 7 33 0 0.564
1530 365 7 52 1 1 36 1 0.402
1531 365 7 53 0 0 33 0 0.471
1532 365 7 54 0 5 32 0 0.378
1533 365 7 55 0 7 32 0 0.544
1534 365 7 56 0 7 31 0 0.337
1535 365 7 57 0 2 34 0 0.312
1536 365 7 58 1 3 31 1 0.642
1537 365 7 59 0 7 31 0 0.496
1538 366 0 0 0 4 31 1 0.834
1539 366 0 1 0 8 36 1 0.467
1540 366 0 2 0 9 32 1 0.372
1541 366 0 3 0 1 33 0 0.455
1542 366 0 4 0 8 31 1 0.377
1543 366 0 5 0 6 32 1 0.448
1544 366 0 6 0 8 31 1 0.292
1545 366 0 7 0 0 35 0 0.339
1546 366 0 8 0 4 35 0 0.628
1547 366 0 9 0 0 31 0 0.401
1548 366 0 10 1 6 33 1 0.436
1549 366 0 11 0 3 33 1 0.488
1550 366 0 12 0 5 40 0 0.324
1551 366 0 13 0 7 36 1 0.36
1552 366 0 14 1 7 33 1 0.413
1553 366 0 15 0 3 33 0 0.561
1554 366 0 16 1 7 32 1 0.53
1555 366 0 17 1 7 32 1 0.515
1556 366 0 18 1 2 32 0 0.307
1557 366 0 19 0 3 37 0 0.504
1558 366 0 20 1 9 31 1 0.258
1559 366 0 21 0 4 32 0 0.317
1560 366 0 22 0 7 32 1 0.308
1561 366 0 23 1 2 31 0 0.334
1562 366 0 24 0 7 33 1 0.432
1563 366 0 25 0 4 31 1 0.529
1564 366 0 26 1 6 33 1 0.562
1565 366 0 27 1 4 32 0 0.441
1566 366 0 28 1 1 31 0 0.333
1567 366 0 29 0 1 33 0 0.676
1568 366 0 30 0 0 32 0 0.429
1569 366 0 31 1 6 34 1 0.489
1570 366 0 32 0 3 32 0 0.604
1571 366 0 33 0 4 33 0 0.5
1572 366 0 34 0 7 34 1 0.293
1573 366 0 35 0 4 31 1 0.575
1574 366 0 36 1 5 34 0 0.422
1575 366 0 37 0 2 32 1 0.246
1576 366 0 38 0 6 31 1 0.306
1577 366 0 39 0 0 35 0 0.225
1578 366 0 40 1 7 44 1 0.549
1579 366 0 41 1 8 31 1 0.435
1580 366 0 42 1 1 31 0 0.344
1581 366 0 43 0 8 33 1 0.269
1582 366 0 44 0 0 31 0 0.536
1583 366 0 45 1 7 32 1 0.28
1584 366 0 46 0 1 31 0 0.364
1585 366 0 47 0 0 35 0 0.43
1586 366 0 48 0 0 34 0 0.401
1587 366 0 49 1 5 35 1 0.542
1588 366 0 50 0 8 33 1 0.286
1589 366 0 51 0 8 32 1 0.456
1590 366 0 52 0 3 31 1 0.3
1591 366 0 53 1 4 33 0 0.467
1592 366 0 54 1 9 32 1 0.256
1593 366 0 55 1 1 34 0 0.361
1594 366 0 56 1 4 34 0 0.382
1595 366 0 57 1 3 31 0 0.34
1596 366 0 58 1 2 33 0 0.299
1597 366 0 59 0 8 32 1 0.244
1598 366 1 0 1 2 31 0 0.591
1599 366 1 1 1 2 32 0 0.301
1600 366 1 2 0 5 36 1 0.386
1601 366 1 3 0 2 31 0 0.484
1602 366 1 4 0 7 33 1 0.326
1603 366 1 5 0 9 32 1 0.398
1604 366 1 6 1 1 36 0 0.273
1605 366 1 7 0 2 33 0 0.427
1606 366 1 8 0 8 36 1 0.253
1607 366 1 9 1 4 32 0 0.553
1608 366 1 10 1 6 33 1 0.44
1609 366 1 11 0 4 32 1 0.492
1610 366 1 12 1 8 33 1 0.35
1611 366 1 13 0 9 36 1 0.401
1612 366 1 14 0 1 31 0 0.42
1613 366 1 15 1 2 33 0 0.457
1614 366 1 16 0 3 33 1 0.283
1615 366 1 17 0 5 32 1 0.261
1616 366 1 18 1 2 31 0 0.304
1617 366 1 19 0 5 32 1 0.52
1618 366 1 20 0 1 32 0 0.329
1619 366 1 21 1 8 35 1 0.355
1620 366 1 22 1 1 31 0 0.325
1621 366 1 23 1 6 35 1 0.523
1622 366 1 24 0 1 31 0 0.361
1623 366 1 25 0 4 33 1 0.637
1624 366 1 26 0 9 33 1 0.258
1625 366 1 27 0 3 32 0 0.317
1626 366 1 28 0 3 33 0 0.484
1627 366 1 29 1 7 31 1 0.263
1628 366 1 30 1 5 35 0 0.576
1629 366 1 31 1 4 33 0 0.366
1630 366 1 32 1 5 36 0 0.386
1631 366 1 33 1 7 34 1 0.566
1632 366 1 34 1 6 31 1 0.501
1633 366 1 35 0 5 32 1 0.295
1634 366 1 36 0 1 31 0 0.425
1635 366 1 37 1 2 37 0 0.517
1636 366 1 38 1 6 42 1 0.593
1637 366 1 39 0 9 35 1 0.442
1638 366 1 40 0 6 31 1 0.543
1639 366 1 41 0 7 35 1 0.364
1640 366 1 42 0 0 35 0 0.301
1641 366 1 43 0 4 31 0 0.519
1642 366 1 44 1 2 32 0 0.502
1643 366 1 45 1 9 31 1 0.377
1644 366 1 46 1 8 32 1 0.352
1645 366 1 47 1 8 32 1 0.343
1646 366 1 48 0 0 31 0 0.368
1647 366 1 49 0 5 32 1 0.34
1648 366 1 50 0 9 32 1 0.344
1649 366 1 51 1 1 38 0 0.52
1650 366 1 52 1 3 34 0 0.45
1651 366 1 53 1 6 31 1 0.437
1652 366 1 54 0 9 33 1 0.328
1653 366 1 55 0 7 31 1 0.288
1654 366 1 56 0 3 35 0 0.424
1655 366 1 57 1 2 32 0 0.349
1656 366 1 58 1 4 33 0 0.418
1657 366 1 59 1 8 34 1 0.278
1658 366 2 0 0 0 32 0 0.346
1659 366 2 1 1 2 41 0 0.283
1660 366 2 2 0 9 34 1 0.275
1661 366 2 3 0 2 32 0 0.316
1662 366 2 4 1 0 31 0 0.236
1663 366 2 5 1 5 32 0 0.343
1664 366 2 6 0 4 31 1 0.223
1665 366 2 7 1 0 31 0 0.349
1666 366 2 8 1 4 33 1 0.5
1667 366 2 9 0 7 38 1 0.402
1668 366 2 10 1 9 35 1 0.337
1669 366 2 11 0 4 33 1 0.297
1670 366 2 12 1 4 33 0 0.513
1671 366 2 13 0 7 35 1 0.331
1672 366 2 14 0 0 32 0 0.419
1673 366 2 15 0 9 37 1 0.277
1674 366 2 16 0 1 31 0 0.593
1675 366 2 17 1 1 31 0 0.352
1676 366 2 18 0 1 33 0 0.535
1677 366 2 19 0 7 35 1 0.39
1678 366 2 20 0 6 37 1 0.329
1679 366 2 21 1 3 34 0 0.381
1680 366 2 22 0 7 33 1 0.323
1681 366 2 23 0 2 31 0 0.428
1682 366 2 24 0 1 33 0 0.382
1683 366 2 25 0 9 33 1 0.403
1684 366 2 26 0 6 33 1 0.585
1685 366 2 27 1 9 33 0 0.391
1686 366 2 28 1 9 41 1 0.472
1687 366 2 29 1 3 31 0 0.412
1688 366 2 30 1 5 31 0 0.37
1689 366 2 31 1 8 37 1 0.417
1690 366 2 32 1 5 32 0 0.406
1691 366 2 33 0 6 34 1 0.347
1692 366 2 34 0 1 31 0 0.435
1693 366 2 35 0 6 33 1 0.519
1694 366 2 36 0 9 32 1 0.648
1695 366 2 37 1 9 31 1 0.502
1696 366 2 38 1 3 31 0 0.6
1697 366 2 39 0 2 31 0 0.472
1698 366 2 40 0 2 32 0 0.529
1699 366 2 41 0 6 35 1 0.304
1700 366 2 42 0 6 31 1 0.346
1701 366 2 43 1 7 31 1 0.37
1702 366 2 44 0 6 33 1 0.393
1703 366 2 45 1 0 33 0 0.302
1704 366 2 46 1 3 31 0 0.328
1705 366 2 47 0 2 32 0 0.368
1706 366 2 48 1 5 31 0 0.456
1707 366 2 49 0 4 31 1 0.479
1708 366 2 50 0 4 31 0 0.674
1709 366 2 51 0 7 31 1 0.351
1710 366 2 52 0 1 32 0 0.423
1711 366 2 53 0 5 40 1 0.391
1712 366 2 54 0 8 31 1 0.318
1713 366 2 55 1 7 31 1 0.295
1714 366 2 56 0 9 34 1 0.24
1715 366 2 57 1 9 31 1 0.283
1716 366 2 58 1 1 31 0 0.406
1717 366 2 59 0 9 33 1 0.254
1718 366 3 0 1 9 31 1 0.339
1719 366 3 1 0 2 33 0 0.267
1720 366 3 2 1 3 31 0 0.294
1721 366 3 3 1 7 36 1 0.391
1722 366 3 4 1 4 31 0 0.269
1723 366 3 5 1 5 33 0 0.359
1724 366 3 6 0 3 36 0 0.493
1725 366 3 7 1 4 37 0 0.332
1726 366 3 8 0 0 32 0 0.35
1727 366 3 9 0 4 35 1 0.564
1728 366 3 10 1 9 34 1 0.274
1729 366 3 11 1 5 31 0 0.349
1730 366 3 12 1 8 36 1 0.355
1731 366 3 13 0 2 31 0 0.347
1732 366 3 14 1 9 32 1 0.29
1733 366 3 15 1 3 32 0 0.3
1734 366 3 16 1 3 32 0 0.338
1735 366 3 17 0 8 45 1 0.338
1736 366 3 18 0 7 31 1 0.507
1737 366 3 19 0 6 32 1 0.397
1738 366 3 20 1 0 31 0 0.356
1739 366 3 21 1 0 31 0 0.348
1740 366 3 22 1 3 31 0 0.324
1741 366 3 23 0 8 32 1 0.269
1742 366 3 24 1 8 33 1 0.326
1743 366 3 25 0 7 34 1 0.301
1744 366 3 26 1 8 33 1 0.358
1745 366 3 27 0 0 33 0 0.445
1746 366 3 28 1 4 31 0 0.306
1747 366 3 29 0 4 34 0 0.542
1748 366 3 30 1 2 38 0 0.362
1749 366 3 31 0 5 35 0 0.591
1750 366 3 32 1 7 31 1 0.428
1751 366 3 33 1 0 32 0 0.544
1752 366 3 34 0 6 36 1 0.221
1753 366 3 35 0 2 34 0 0.377
1754 366 3 36 1 0 31 0 0.352
1755 366 3 37 0 8 31 1 0.343
1756 366 3 38 0 3 32 0 0.559
1757 366 3 39 1 8 31 1 0.399
1758 366 3 40 1 6 31 0 0.661
1759 366 3 41 1 3 31 0 0.562
1760 366 3 42 1 6 32 1 0.626
1761 366 3 43 1 5 31 0 0.816
1762 366 3 44 1 1 32 0 0.469
1763 366 3 45 0 9 32 1 0.313
1764 366 3 46 0 1 32 0 0.353
1765 366 3 47 1 8 31 1 0.264
1766 366 3 48 1 7 32 0 0.467
1767 366 3 49 0 8 31 1 0.279
1768 366 3 50 0 7 34 1 0.224
1769 366 3 51 1 2 33 0 0.33
1770 366 3 52 1 5 36 0 0.416
1771 366 3 53 1 0 33 0 0.517
1772 366 3 54 1 4 32 0 0.374
1773 366 3 55 0 5 31 1 0.318
1774 366 3 56 1 1 32 0 0.422
1775 366 3 57 0 9 31 1 0.252
1776 366 3 58 1 5 31 0 0.631
1777 366 3 59 0 9 32 1 0.245
1778 366 4 0 0 2 33 0 0.48
1779 366 4 1 1 6 35 1 0.593
1780 366 4 2 1 2 31 0 0.304
1781 366 4 3 1 4 31 0 0.39
1782 366 4 4 1 0 33 0 0.539
1783 366 4 5 1 0 40 0 0.328
1784 366 4 6 0 2 33 0 0.591
1785 366 4 7 0 3 33 0 0.526
1786 366 4 8 1 5 33 1 0.526
1787 366 4 9 1 0 31 0 0.352
1788 366 4 10 1 3 34 0 0.438
1789 366 4 11 0 6 31 1 0.283
1790 366 4 12 1 0 32 0 0.213
1791 366 4 13 1 8 31 1 0.242
1792 366 4 14 0 3 32 1 0.414
1793 366 4 15 0 5 31 0 0.324
1794 366 4 16 0 3 32 1 0.3
1795 366 4 17 1 4 31 0 0.742
1796 366 4 18 1 6 34 1 0.446
1797 366 4 19 1 1 36 0 0.415
1798 366 4 20 0 0 32 0 0.468
1799 366 4 21 1 2 32 1 0.775
1800 366 4 22 0 9 33 1 0.351
1801 366 4 23 0 1 31 0 0.535
1802 366 4 24 0 6 35 1 0.358
1803 366 4 25 1 9 34 1 0.413
1804 366 4 26 0 5 33 1 0.737
1805 366 4 27 1 9 32 1 0.427
1806 366 4 28 1 6 35 1 0.436
1807 366 4 29 1 4 31 1 0.841
1808 366 4 30 0 2 34 0 0.442
1809 366 4 31 0 5 32 1 0.383
1810 366 4 32 1 7 32 1 0.261
1811 366 4 33 1 7 35 1 0.27
1812 366 4 34 1 9 33 1 0.264
1813 366 4 35 1 9 31 1 0.243
1814 366 4 36 1 5 34 0 0.348
1815 366 4 37 1 4 32 0 0.42
1816 366 4 38 0 2 32 0 0.345
1817 366 4 39 1 2 31 0 0.321
1818 366 4 40 1 0 32 0 0.33
1819 366 4 41 0 1 31 0 0.467
1820 366 4 42 0 0 31 0 0.343
1821 366 4 43 0 9 31 1 0.431
1822 366 4 44 0 7 36 1 0.37
1823 366 4 45 1 4 37 1 0.534
1824 366 4 46 1 7 34 1 0.485
1825 366 4 47 0 8 34 1 0.327
1826 366 4 48 0 0 31 0 0.38
1827 366 4 49 0 0 32 0 0.483
1828 366 4 50 0 1 31 0 0.486
1829 366 4 51 0 3 32 0 0.905
1830 366 4 52 0 0 31 0 0.429
1831 366 4 53 1 3 39 0 0.381
1832 366 4 54 1 7 31 1 0.42
1833 366 4 55 0 5 31 1 0.298
1834 366 4 56 0 0 33 0 0.322
1835 366 4 57 1 2 32 0 0.331
1836 366 4 58 1 8 34 1 0.26
1837 366 4 59 0 4 33 1 0.702
1838 366 5 0 0 2 33 0 0.551
1839 366 5 1 0 2 39 0 0.468
1840 366 5 2 1 8 33 1 0.31
1841 366 5 3 1 0 32 0 0.303
1842 366 5 4 1 9 35 1 0.263
1843 366 5 5 1 6 33 1 0.529
1844 366 5 6 1 4 31 0 0.338
1845 366 5 7 0 5 33 1 0.506
1846 366 5 8 1 2 31 0 0.364
1847 366 5 9 1 5 31 1 0.516
1848 366 5 10 0 2 31 0 0.471
1849 366 5 11 1 0 34 0 0.361
1850 366 5 12 1 4 32 0 0.96
1851 366 5 13 0 0 34 0 0.464
1852 366 5 14 1 7 34 1 0.402
1853 366 5 15 0 9 32 1 0.36
1854 366 5 16 1 0 38 0 0.364
1855 366 5 17 1 7 49 1 0.424
1856 366 5 18 1 0 31 0 0.862
1857 366 5 19 1 1 31 0 0.34
1858 366 5 20 1 3 31 0 0.461
1859 366 5 21 1 1 32 0 0.368
1860 366 5 22 1 1 31 0 0.376
1861 366 5 23 1 1 36 0 0.315
1862 366 5 24 0 8 31 1 0.28
1863 366 5 25 0 9 32 1 0.274
1864 366 5 26 1 7 35 1 0.459
1865 366 5 27 1 7 31 1 0.286
1866 366 5 28 0 2 32 1 0.312
1867 366 5 29 1 8 31 1 0.337
1868 366 5 30 1 8 31 1 0.298
1869 366 5 31 1 3 31 0 0.308
1870 366 5 32 0 7 39 1 0.281
1871 366 5 33 0 6 32 1 0.307
1872 366 5 34 1 8 41 1 0.31
1873 366 5 35 0 1 32 0 0.48
1874 366 5 36 1 1 33 0 0.274
1875 366 5 37 0 5 32 1 0.428
1876 366 5 38 1 1 35 0 0.463
1877 366 5 39 1 3 35 0 0.529
1878 366 5 40 1 6 33 0 0.353
1879 366 5 41 0 5 31 1 0.265
1880 366 5 42 0 5 34 1 0.53
1881 366 5 43 1 9 31 1 0.372
1882 366 5 44 1 6 40 1 0.686
1883 366 5 45 1 6 31 1 0.586
1884 366 5 46 0 8 31 1 0.329
1885 366 5 47 0 4 34 1 0.352
1886 366 5 48 0 5 32 1 0.632
1887 366 5 49 1 5 31 1 1.094
1888 366 5 50 1 3 34 0 0.361
1889 366 5 51 0 5 32 1 0.288
1890 366 5 52 0 6 33 1 0.329
1891 366 5 53 0 8 36 1 0.271
1892 366 5 54 1 2 32 0 0.361
1893 366 5 55 0 0 31 0 0.353
1894 366 5 56 1 3 36 0 0.582
1895 366 5 57 0 6 34 1 0.452
1896 366 5 58 0 0 31 0 0.696
1897 366 5 59 1 1 32 0 0.339
1898 366 6 0 0 1 31 0 0.404
1899 366 6 1 0 0 31 0 0.315
1900 366 6 2 0 6 31 1 0.372
1901 366 6 3 1 6 32 0 0.52
1902 366 6 4 0 8 31 1 0.25
1903 366 6 5 1 8 32 1 0.373
1904 366 6 6 1 0 33 0 0.412
1905 366 6 7 1 6 31 1 0.465
1906 366 6 8 1 3 40 0 0.416
1907 366 6 9 1 9 37 1 0.354
1908 366 6 10 0 6 33 1 0.505
1909 366 6 11 1 5 34 1 0.41
1910 366 6 12 0 6 33 1 0.383
1911 366 6 13 0 5 32 1 0.517
1912 366 6 14 0 5 31 1 0.295
1913 366 6 15 0 8 35 1 0.255
1914 366 6 16 0 2 34 1 0.248
1915 366 6 17 1 2 32 0 0.339
1916 366 6 18 1 5 31 0 0.267
1917 366 6 19 0 7 31 1 0.311
1918 366 6 20 0 8 35 1 0.366
1919 366 6 21 1 8 32 1 0.469
1920 366 6 22 1 0 32 0 0.28
1921 366 6 23 1 0 32 0 0.29
1922 366 6 24 0 3 33 1 0.572
1923 366 6 25 1 7 34 1 0.442
1924 366 6 26 0 2 35 1 0.317
1925 366 6 27 1 4 38 0 0.337
1926 366 6 28 0 8 34 1 0.312
1927 366 6 29 1 6 33 1 0.448
1928 366 6 30 1 6 32 1 0.42
1929 366 6 31 1 1 37 0 0.326
1930 366 6 32 1 5 31 1 0.495
1931 366 6 33 1 6 31 1 0.45
1932 366 6 34 1 5 34 1 0.532
1933 366 6 35 1 6 35 1 0.419
1934 366 6 36 1 1 31 0 0.377
1935 366 6 37 1 5 32 1 0.559
1936 366 6 38 1 9 31 1 0.403
1937 366 6 39 1 9 33 1 0.377
1938 366 6 40 0 1 36 0 0.492
1939 366 6 41 0 5 34 1 0.461
1940 366 6 42 0 4 31 1 0.449
1941 366 6 43 0 4 34 1 0.388
1942 366 6 44 0 3 32 0 0.299
1943 366 6 45 1 8 31 1 0.357
1944 366 6 46 0 7 34 1 0.411
1945 366 6 47 0 7 33 1 0.336
1946 366 6 48 0 6 32 1 0.84
1947 366 6 49 1 4 31 0 0.27
1948 366 6 50 0 7 31 1 0.41
1949 366 6 51 1 2 31 0 0.255
1950 366 6 52 0 8 31 1 0.331
1951 366 6 53 1 8 31 1 0.436
1952 366 6 54 0 5 40 0 0.548
1953 366 6 55 1 0 32 0 0.308
1954 366 6 56 0 9 35 1 0.284
1955 366 6 57 1 8 33 1 0.277
1956 366 6 58 0 3 32 0 0.223
1957 366 6 59 1 3 33 0 0.347
1958 366 7 0 1 3 32 0 0.536
1959 366 7 1 1 9 33 1 0.392
1960 366 7 2 0 1 32 0 0.334
1961 366 7 3 0 3 36 0 0.324
1962 366 7 4 0 4 48 1 0.307
1963 366 7 5 0 6 34 1 0.395
1964 366 7 6 1 1 32 0 0.321
1965 366 7 7 0 1 34 0 0.473
1966 366 7 8 0 9 32 1 0.3
1967 366 7 9 0 9 31 1 0.374
1968 366 7 10 1 4 32 0 0.269
1969 366 7 11 0 1 36 0 0.372
1970 366 7 12 1 7 31 1 0.428
1971 366 7 13 0 6 35 1 0.495
1972 366 7 14 0 8 37 1 0.334
1973 366 7 15 1 5 34 0 0.325
1974 366 7 16 1 7 33 1 0.445
1975 366 7 17 0 2 31 0 0.449
1976 366 7 18 1 3 31 0 0.374
1977 366 7 19 0 6 33 1 0.412
1978 366 7 20 1 3 32 0 0.321
1979 366 7 21 0 4 33 1 0.713
1980 366 7 22 0 3 31 0 1.061
1981 366 7 23 0 4 36 1 0.656
1982 366 7 24 0 8 31 1 0.382
1983 366 7 25 1 2 32 0 0.292
1984 366 7 26 1 9 31 1 0.398
1985 366 7 27 1 9 31 1 0.308
1986 366 7 28 0 0 32 0 0.35
1987 366 7 29 0 2 31 0 0.438
1988 366 7 30 1 5 31 0 0.618
1989 366 7 31 0 2 38 0 0.533
1990 366 7 32 0 1 35 0 0.404
1991 366 7 33 0 9 36 1 0.293
1992 366 7 34 0 3 33 0 0.442
1993 366 7 35 0 3 34 0 0.365
1994 366 7 36 0 3 31 0 0.388
1995 366 7 37 0 4 32 0 0.395
1996 366 7 38 1 6 31 0 0.433
1997 366 7 39 1 1 31 0 0.342
1998 366 7 40 1 9 32 1 0.286
1999 366 7 41 1 0 36 0 0.31
2000 366 7 42 1 3 32 0 0.303
2001 366 7 43 1 0 31 0 0.329
2002 366 7 44 1 4 32 0 0.865
2003 366 7 45 0 7 31 1 0.31
2004 366 7 46 0 1 39 0 0.363
2005 366 7 47 1 4 31 0 0.435
2006 366 7 48 0 3 32 0 0.583
2007 366 7 49 0 5 32 1 0.438
2008 366 7 50 1 2 31 0 0.315
2009 366 7 51 1 1 34 0 0.402
2010 366 7 52 0 4 32 1 0.36
2011 366 7 53 1 8 39 1 0.379
2012 366 7 54 1 1 33 0 0.337
2013 366 7 55 1 0 36 0 0.358
2014 366 7 56 0 7 34 1 0.54
2015 366 7 57 1 2 33 0 0.333
2016 366 7 58 0 7 39 1 0.465
2017 366 7 59 1 7 34 1 0.467
2018 367 0 0 1 9 31 1 0.547
2019 367 0 1 1 3 34 0 0.256
2020 367 0 2 1 1 35 0 0.185
2021 367 0 3 1 4 32 1 0.182
2022 367 0 4 0 6 34 1 0.211
2023 367 0 5 1 7 35 1 0.279
2024 367 0 6 0 2 35 0 0.319
2025 367 0 7 0 2 31 0 0.249
2026 367 0 8 0 9 33 1 0.307
2027 367 0 9 1 8 34 1 0.515
2028 367 0 10 1 7 31 1 0.341
2029 367 0 11 1 8 32 1 0.297
2030 367 0 12 0 8 33 1 0.242
2031 367 0 13 1 3 38 0 0.217
2032 367 0 14 1 8 31 1 0.23
2033 367 0 15 0 4 35 0 0.204
2034 367 0 16 0 5 33 0 0.216
2035 367 0 17 1 2 35 0 0.334
2036 367 0 18 1 4 33 0 0.309
2037 367 0 19 0 4 31 0 0.335
2038 367 0 20 0 5 37 0 0.292
2039 367 0 21 1 2 32 0 0.286
2040 367 0 22 0 8 33 1 0.263
2041 367 0 23 0 7 33 1 0.32
2042 367 0 24 1 3 32 0 0.313
2043 367 0 25 0 0 31 0 0.204
2044 367 0 26 1 9 32 1 0.265
2045 367 0 27 0 8 31 1 0.244
2046 367 0 28 1 4 34 0 0.414
2047 367 0 29 0 4 36 0 0.304
2048 367 0 30 1 1 33 0 0.281
2049 367 0 31 1 0 32 0 0.195
2050 367 0 32 1 2 32 0 0.175
2051 367 0 33 0 0 33 0 0.205
2052 367 0 34 0 9 31 1 0.266
2053 367 0 35 1 9 32 1 0.357
2054 367 0 36 1 3 31 0 0.221
2055 367 0 37 1 3 31 0 0.218
2056 367 0 38 0 3 33 0 0.23
2057 367 0 39 1 5 31 0 0.178
2058 367 0 40 1 9 33 1 0.207
2059 367 0 41 0 2 33 0 0.155
2060 367 0 42 0 9 34 1 0.185
2061 367 0 43 1 7 31 1 0.247
2062 367 0 44 1 9 32 1 0.258
2063 367 0 45 0 7 32 1 0.189
2064 367 0 46 1 6 32 1 0.227
2065 367 0 47 1 7 39 1 0.202
2066 367 0 48 1 6 32 1 0.279
2067 367 0 49 1 3 33 0 0.256
2068 367 0 50 0 9 37 1 0.216
2069 367 0 51 0 3 34 0 0.179
2070 367 0 52 0 6 31 1 0.242
2071 367 0 53 1 0 35 0 0.22
2072 367 0 54 1 7 31 1 0.217
2073 367 0 55 1 4 31 1 0.197
2074 367 0 56 0 8 31 1 0.227
2075 367 0 57 0 5 32 0 0.159
2076 367 0 58 0 2 39 0 0.218
2077 367 0 59 0 6 32 1 0.262
2078 367 1 0 0 2 31 0 0.302
2079 367 1 1 0 1 31 0 0.23
2080 367 1 2 1 4 31 0 0.242
2081 367 1 3 1 6 32 0 0.238
2082 367 1 4 1 4 35 0 0.232
2083 367 1 5 0 3 35 0 0.306
2084 367 1 6 1 6 31 0 0.284
2085 367 1 7 1 6 34 1 0.404
2086 367 1 8 1 8 31 1 0.299
2087 367 1 9 1 6 35 1 0.258
2088 367 1 10 1 9 31 1 0.222
2089 367 1 11 0 5 33 1 0.218
2090 367 1 12 0 9 31 1 0.31
2091 367 1 13 0 4 31 1 0.24
2092 367 1 14 0 3 31 0 0.269
2093 367 1 15 0 5 31 0 0.264
2094 367 1 16 0 4 37 0 0.255
2095 367 1 17 1 3 37 0 0.247
2096 367 1 18 0 8 33 1 0.178
2097 367 1 19 0 3 31 0 0.272
2098 367 1 20 1 5 31 0 0.251
2099 367 1 21 0 7 32 1 0.262
2100 367 1 22 1 9 31 1 0.257
2101 367 1 23 1 6 40 1 0.184
2102 367 1 24 0 0 36 1 0.163
2103 367 1 25 0 9 33 1 0.257
2104 367 1 26 1 5 31 0 0.3
2105 367 1 27 0 8 35 1 0.341
2106 367 1 28 1 7 35 0 0.284
2107 367 1 29 0 6 32 1 0.246
2108 367 1 30 1 9 32 1 0.193
2109 367 1 31 1 7 32 1 0.366
2110 367 1 32 1 6 36 1 0.195
2111 367 1 33 0 4 32 0 0.16
2112 367 1 34 0 6 36 1 0.237
2113 367 1 35 0 0 32 0 0.296
2114 367 1 36 1 1 31 0 0.29
2115 367 1 37 0 1 32 0 0.268
2116 367 1 38 1 1 32 0 0.247
2117 367 1 39 0 3 32 0 0.29
2118 367 1 40 0 5 37 0 0.201
2119 367 1 41 0 8 31 1 0.23
2120 367 1 42 0 4 33 1 0.161
2121 367 1 43 0 2 32 0 0.319
2122 367 1 44 1 4 33 0 0.167
2123 367 1 45 0 9 32 1 0.278
2124 367 1 46 0 2 31 0 0.289
2125 367 1 47 1 8 31 1 0.203
2126 367 1 48 0 4 31 1 0.281
2127 367 1 49 0 6 31 1 0.179
2128 367 1 50 1 7 34 0 0.176
2129 367 1 51 0 3 37 0 0.283
2130 367 1 52 1 1 36 0 0.226
2131 367 1 53 0 5 31 1 0.286
2132 367 1 54 1 6 41 1 0.227
2133 367 1 55 1 0 34 0 0.286
2134 367 1 56 1 5 35 1 0.47
2135 367 1 57 1 6 32 1 0.217
2136 367 1 58 0 3 31 1 0.294
2137 367 1 59 1 8 34 1 0.222
2138 367 2 0 1 8 31 1 0.249
2139 367 2 1 1 9 31 1 0.212
2140 367 2 2 1 1 32 0 0.241
2141 367 2 3 0 6 31 1 0.205
2142 367 2 4 0 4 32 1 0.25
2143 367 2 5 0 0 35 0 0.179
2144 367 2 6 0 0 31 0 0.193
2145 367 2 7 0 9 39 0 0.187
2146 367 2 8 1 2 31 0 0.201
2147 367 2 9 1 2 34 0 0.228
2148 367 2 10 1 6 31 1 0.209
2149 367 2 11 1 9 34 1 0.236
2150 367 2 12 0 6 31 1 0.169
2151 367 2 13 1 3 32 0 0.359
2152 367 2 14 0 0 34 0 0.189
2153 367 2 15 1 0 31 0 0.315
2154 367 2 16 1 8 34 1 0.243
2155 367 2 17 0 8 32 1 0.238
2156 367 2 18 0 0 34 0 0.185
2157 367 2 19 0 4 31 1 0.215
2158 367 2 20 0 2 31 0 0.308
2159 367 2 21 1 8 32 1 0.253
2160 367 2 22 0 5 31 1 0.265
2161 367 2 23 1 1 33 0 0.211
2162 367 2 24 0 8 32 1 0.176
2163 367 2 25 1 4 35 0 0.188
2164 367 2 26 1 2 32 0 0.266
2165 367 2 27 1 7 32 1 0.26
2166 367 2 28 1 8 31 1 0.256
2167 367 2 29 1 1 31 0 0.171
2168 367 2 30 1 1 35 0 0.2
2169 367 2 31 0 7 32 1 0.28
2170 367 2 32 0 4 37 0 0.175
2171 367 2 33 0 3 31 0 0.269
2172 367 2 34 0 5 35 1 0.198
2173 367 2 35 1 6 32 1 0.307
2174 367 2 36 1 8 31 1 0.285
2175 367 2 37 1 7 31 1 0.326
2176 367 2 38 1 9 33 1 0.174
2177 367 2 39 0 8 32 1 0.22
2178 367 2 40 1 3 32 0 0.232
2179 367 2 41 1 2 35 0 0.258
2180 367 2 42 1 3 35 0 0.155
2181 367 2 43 1 0 32 0 0.234
2182 367 2 44 1 5 36 0 0.259
2183 367 2 45 0 6 32 1 0.238
2184 367 2 46 1 5 31 0 0.251
2185 367 2 47 1 4 33 0 0.309
2186 367 2 48 1 9 31 1 0.238
2187 367 2 49 1 9 34 1 0.153
2188 367 2 50 0 1 31 0 0.312
2189 367 2 51 0 0 31 0 0.226
2190 367 2 52 0 1 32 0 0.206
2191 367 2 53 1 1 31 0 0.187
2192 367 2 54 0 8 35 1 0.215
2193 367 2 55 1 4 32 0 0.243
2194 367 2 56 1 2 35 0 0.205
2195 367 2 57 1 6 32 0 0.202
2196 367 2 58 0 9 35 1 0.261
2197 367 2 59 0 5 32 1 0.08
2198 367 3 0 1 8 45 1 0.312
2199 367 3 1 0 7 34 1 0.176
2200 367 3 2 1 5 31 0 0.206
2201 367 3 3 1 5 33 0 0.251
2202 367 3 4 0 5 33 0 0.421
2203 367 3 5 1 2 31 0 0.331
2204 367 3 6 0 8 34 1 0.178
2205 367 3 7 1 8 31 1 0.208
2206 367 3 8 1 4 33 0 0.268
2207 367 3 9 0 3 35 0 0.357
2208 367 3 10 1 8 32 0 0.285
2209 367 3 11 1 3 32 1 0.231
2210 367 3 12 1 2 40 0 0.221
2211 367 3 13 1 0 31 0 0.266
2212 367 3 14 0 7 31 1 0.23
2213 367 3 15 1 3 38 0 0.254
2214 367 3 16 1 7 33 1 0.2
2215 367 3 17 0 8 35 1 0.275
2216 367 3 18 0 9 32 1 0.174
2217 367 3 19 0 4 32 1 0.108
2218 367 3 20 0 2 31 1 0.125
2219 367 3 21 0 9 34 1 0.315
2220 367 3 22 1 2 32 1 0.164
2221 367 3 23 1 0 31 0 0.242
2222 367 3 24 1 9 31 1 0.191
2223 367 3 25 0 0 31 0 0.205
2224 367 3 26 0 5 35 1 0.264
2225 367 3 27 1 5 32 0 0.546
2226 367 3 28 0 3 33 0 0.21
2227 367 3 29 1 3 32 0 0.223
2228 367 3 30 0 8 32 1 0.171
2229 367 3 31 0 5 35 0 0.167
2230 367 3 32 1 2 32 0 0.261
2231 367 3 33 0 7 31 1 0.193
2232 367 3 34 1 9 31 1 0.159
2233 367 3 35 0 9 31 1 0.174
2234 367 3 36 1 0 33 0 0.22
2235 367 3 37 0 9 31 1 0.201
2236 367 3 38 0 1 31 0 0.214
2237 367 3 39 1 2 31 0 0.243
2238 367 3 40 1 7 32 1 0.174
2239 367 3 41 1 2 33 0 0.22
2240 367 3 42 1 1 31 0 0.249
2241 367 3 43 1 5 33 1 0.211
2242 367 3 44 0 6 31 1 0.24
2243 367 3 45 0 4 31 1 0.22
2244 367 3 46 0 8 31 1 0.281
2245 367 3 47 0 2 31 1 0.212
2246 367 3 48 1 0 33 0 0.287
2247 367 3 49 1 3 33 1 0.217
2248 367 3 50 1 9 32 1 0.325
2249 367 3 51 1 5 34 1 0.236
2250 367 3 52 1 3 33 0 0.199
2251 367 3 53 0 5 32 0 0.388
2252 367 3 54 0 2 32 1 0.43
2253 367 3 55 1 5 33 0 0.257
2254 367 3 56 1 0 33 0 0.172
2255 367 3 57 1 4 31 0 0.218
2256 367 3 58 0 0 32 0 0.407
2257 367 3 59 0 0 38 0 0.377
2258 367 4 0 1 5 31 0 0.377
2259 367 4 1 1 3 31 0 0.251
2260 367 4 2 1 3 31 0 0.231
2261 367 4 3 0 7 34 1 0.241
2262 367 4 4 1 4 32 0 0.214
2263 367 4 5 1 0 34 0 0.257
2264 367 4 6 0 2 31 0 0.477
2265 367 4 7 0 1 32 0 0.256
2266 367 4 8 1 4 31 0 0.252
2267 367 4 9 0 7 31 1 0.231
2268 367 4 10 1 5 32 0 0.195
2269 367 4 11 0 8 32 1 0.304
2270 367 4 12 0 8 31 1 0.25
2271 367 4 13 0 4 39 0 0.257
2272 367 4 14 1 0 32 0 0.252
2273 367 4 15 0 7 32 1 0.263
2274 367 4 16 1 7 35 1 0.352
2275 367 4 17 1 6 37 1 0.309
2276 367 4 18 1 5 33 1 0.317
2277 367 4 19 0 2 32 0 0.23
2278 367 4 20 0 1 35 0 0.176
2279 367 4 21 1 7 31 1 0.302
2280 367 4 22 1 4 32 1 0.199
2281 367 4 23 1 5 33 1 0.531
2282 367 4 24 0 4 31 1 0.325
2283 367 4 25 0 5 32 1 0.222
2284 367 4 26 0 5 32 1 0.234
2285 367 4 27 1 7 32 1 0.262
2286 367 4 28 1 8 33 1 0.224
2287 367 4 29 0 6 32 1 0.22
2288 367 4 30 0 0 31 0 0.404
2289 367 4 31 1 5 40 0 0.245
2290 367 4 32 0 4 31 0 0.257
2291 367 4 33 1 1 32 0 0.252
2292 367 4 34 1 6 40 1 0.178
2293 367 4 35 0 7 33 1 0.223
2294 367 4 36 0 6 32 1 0.203
2295 367 4 37 0 6 31 1 0.201
2296 367 4 38 0 1 32 0 0.246
2297 367 4 39 0 7 34 1 0.224
2298 367 4 40 0 5 31 1 0.253
2299 367 4 41 0 5 32 1 0.216
2300 367 4 42 1 0 43 0 0.189
2301 367 4 43 1 2 33 0 0.266
2302 367 4 44 1 2 34 0 0.292
2303 367 4 45 0 0 38 1 0.186
2304 367 4 46 1 2 32 0 0.247
2305 367 4 47 1 9 31 0 0.211
2306 367 4 48 0 2 33 0 0.175
2307 367 4 49 1 4 34 0 0.252
2308 367 4 50 0 2 31 0 0.216
2309 367 4 51 0 3 31 0 0.245
2310 367 4 52 1 3 34 0 0.255
2311 367 4 53 0 6 35 1 0.232
2312 367 4 54 0 6 35 1 0.225
2313 367 4 55 0 4 34 0 0.188
2314 367 4 56 0 2 32 0 0.329
2315 367 4 57 1 7 31 1 0.242
2316 367 4 58 1 3 31 0 0.238
2317 367 4 59 0 1 33 0 0.185
2318 367 5 0 0 8 38 1 0.473
2319 367 5 1 0 5 31 1 0.349
2320 367 5 2 1 7 41 0 0.223
2321 367 5 3 1 5 35 0 0.282
2322 367 5 4 0 6 33 1 0.339
2323 367 5 5 1 8 34 1 0.266
2324 367 5 6 1 2 31 0 0.261
2325 367 5 7 0 8 31 1 0.176
2326 367 5 8 1 6 32 1 0.286
2327 367 5 9 0 5 31 1 0.185
2328 367 5 10 0 7 31 1 0.215
2329 367 5 11 1 8 33 1 0.179
2330 367 5 12 0 3 32 1 0.096
2331 367 5 13 0 2 32 1 0.145
2332 367 5 14 1 9 32 1 0.191
2333 367 5 15 0 3 35 0 0.235
2334 367 5 16 0 1 34 0 0.229
2335 367 5 17 0 1 32 1 0.241
2336 367 5 18 1 9 34 1 0.236
2337 367 5 19 1 0 31 0 0.248
2338 367 5 20 0 3 32 1 0.211
2339 367 5 21 1 7 33 1 0.319
2340 367 5 22 1 0 31 0 0.28
2341 367 5 23 0 8 32 1 0.21
2342 367 5 24 0 9 37 1 0.251
2343 367 5 25 0 2 31 0 0.183
2344 367 5 26 1 6 32 0 0.213
2345 367 5 27 1 0 31 0 0.177
2346 367 5 28 0 1 31 0 0.224
2347 367 5 29 1 6 31 0 0.172
2348 367 5 30 0 8 34 1 0.249
2349 367 5 31 1 4 31 0 0.165
2350 367 5 32 1 1 35 0 0.177
2351 367 5 33 0 7 37 1 0.348
2352 367 5 34 1 2 31 0 0.277
2353 367 5 35 1 3 33 0 0.238
2354 367 5 36 1 4 31 0 0.218
2355 367 5 37 0 3 42 1 0.289
2356 367 5 38 0 0 34 0 0.233
2357 367 5 39 1 1 33 0 0.212
2358 367 5 40 1 6 32 0 0.177
2359 367 5 41 0 4 31 1 0.335
2360 367 5 42 1 1 32 0 0.231
2361 367 5 43 1 5 33 0 0.178
2362 367 5 44 1 1 37 0 0.252
2363 367 5 45 0 2 33 0 0.215
2364 367 5 46 1 4 31 0 0.228
2365 367 5 47 1 9 32 1 0.24
2366 367 5 48 1 0 32 0 0.219
2367 367 5 49 1 8 33 0 0.231
2368 367 5 50 1 2 36 0 0.272
2369 367 5 51 0 3 38 0 0.183
2370 367 5 52 1 6 31 0 0.277
2371 367 5 53 0 4 35 0 0.462
2372 367 5 54 1 5 34 1 0.496
2373 367 5 55 0 4 32 1 0.259
2374 367 5 56 1 6 33 1 0.253
2375 367 5 57 0 6 34 1 0.199
2376 367 5 58 1 2 31 1 0.276
2377 367 5 59 0 5 31 1 0.352
2378 367 6 0 1 0 35 0 0.281
2379 367 6 1 1 0 31 0 0.196
2380 367 6 2 0 4 32 0 0.177
2381 367 6 3 1 8 32 1 0.159
2382 367 6 4 1 0 34 0 0.22
2383 367 6 5 0 9 32 1 0.216
2384 367 6 6 1 7 32 0 0.212
2385 367 6 7 0 7 31 0 0.193
2386 367 6 8 1 6 34 0 0.621
2387 367 6 9 0 7 34 1 0.314
2388 367 6 10 0 8 31 1 0.195
2389 367 6 11 0 1 42 0 0.218
2390 367 6 12 0 1 38 0 0.259
2391 367 6 13 1 3 39 0 0.441
2392 367 6 14 1 5 32 0 0.254
2393 367 6 15 0 0 32 0 0.297
2394 367 6 16 0 9 38 1 0.223
2395 367 6 17 1 1 31 0 0.203
2396 367 6 18 0 0 31 0 0.249
2397 367 6 19 1 1 35 0 0.29
2398 367 6 20 0 1 33 0 0.22
2399 367 6 21 1 4 35 1 0.246
2400 367 6 22 0 0 31 0 0.226
2401 367 6 23 0 9 33 1 0.222
2402 367 6 24 0 6 32 1 0.378
2403 367 6 25 1 9 33 1 0.24
2404 367 6 26 1 8 32 1 0.203
2405 367 6 27 1 1 31 0 0.217
2406 367 6 28 0 1 33 0 0.34
2407 367 6 29 1 7 31 1 0.189
2408 367 6 30 1 1 32 0 0.299
2409 367 6 31 0 7 38 1 0.144
2410 367 6 32 0 3 33 1 0.319
2411 367 6 33 1 0 34 0 0.246
2412 367 6 34 1 7 32 1 0.289
2413 367 6 35 0 2 34 0 0.458
2414 367 6 36 0 2 32 0 0.318
2415 367 6 37 0 5 31 1 0.263
2416 367 6 38 0 1 31 0 0.338
2417 367 6 39 0 3 31 0 0.315
2418 367 6 40 0 0 33 0 0.227
2419 367 6 41 1 8 33 1 0.286
2420 367 6 42 0 9 31 1 0.201
2421 367 6 43 0 7 32 1 0.214
2422 367 6 44 1 0 31 0 0.275
2423 367 6 45 0 1 33 0 0.429
2424 367 6 46 1 9 33 1 0.288
2425 367 6 47 0 3 31 0 0.347
2426 367 6 48 0 9 31 1 0.211
2427 367 6 49 0 5 36 0 0.173
2428 367 6 50 1 4 32 0 0.187
2429 367 6 51 0 1 31 0 0.249
2430 367 6 52 1 2 31 0 0.209
2431 367 6 53 0 7 31 1 0.287
2432 367 6 54 0 3 33 0 0.216
2433 367 6 55 0 4 32 0 0.212
2434 367 6 56 0 8 31 1 0.145
2435 367 6 57 1 2 42 0 0.25
2436 367 6 58 0 3 36 0 0.179
2437 367 6 59 1 5 31 0 0.193
2438 367 7 0 1 1 32 0 0.477
2439 367 7 1 1 1 31 0 0.24
2440 367 7 2 0 7 32 1 0.268
2441 367 7 3 0 3 32 1 0.23
2442 367 7 4 0 0 31 0 0.195
2443 367 7 5 0 1 31 0 0.225
2444 367 7 6 0 6 47 1 0.26
2445 367 7 7 1 7 31 1 0.303
2446 367 7 8 1 0 33 0 0.2
2447 367 7 9 0 1 34 0 0.196
2448 367 7 10 1 6 31 0 0.305
2449 367 7 11 1 8 39 1 0.262
2450 367 7 12 0 9 37 1 0.205
2451 367 7 13 0 7 38 1 0.263
2452 367 7 14 0 3 31 1 0.402
2453 367 7 15 0 2 33 0 0.279
2454 367 7 16 1 4 36 0 0.221
2455 367 7 17 1 1 37 0 0.231
2456 367 7 18 0 2 32 0 0.21
2457 367 7 19 0 9 32 1 0.286
2458 367 7 20 1 9 38 1 0.325
2459 367 7 21 1 8 32 1 0.334
2460 367 7 22 0 9 32 1 0.23
2461 367 7 23 0 0 33 0 0.209
2462 367 7 24 1 3 39 0 0.202
2463 367 7 25 0 6 32 1 0.262
2464 367 7 26 0 1 34 1 0.24
2465 367 7 27 1 3 40 0 0.231
2466 367 7 28 0 0 31 0 0.403
2467 367 7 29 1 4 33 0 0.264
2468 367 7 30 1 3 34 0 0.226
2469 367 7 31 1 5 31 1 0.478
2470 367 7 32 0 4 31 1 0.29
2471 367 7 33 1 7 32 1 0.316
2472 367 7 34 0 8 31 1 0.245
2473 367 7 35 0 5 32 1 0.304
2474 367 7 36 0 6 36 1 0.213
2475 367 7 37 1 8 34 1 0.288
2476 367 7 38 0 6 31 1 0.251
2477 367 7 39 0 1 32 0 0.23
2478 367 7 40 0 9 35 1 0.24
2479 367 7 41 1 4 33 0 0.235
2480 367 7 42 0 1 38 1 0.163
2481 367 7 43 1 5 31 1 0.562
2482 367 7 44 1 2 31 0 0.258
2483 367 7 45 0 7 31 1 0.336
2484 367 7 46 0 6 32 1 0.297
2485 367 7 47 0 7 31 1 0.354
2486 367 7 48 0 6 34 1 0.297
2487 367 7 49 1 7 31 1 0.305
2488 367 7 50 1 1 38 0 0.215
2489 367 7 51 1 0 31 0 0.308
2490 367 7 52 0 0 31 0 0.206
2491 367 7 53 0 0 36 0 0.296
2492 367 7 54 0 4 31 0 0.386
2493 367 7 55 1 9 31 1 0.249
2494 367 7 56 0 7 32 1 0.212
2495 367 7 57 1 6 32 1 0.144
2496 367 7 58 0 9 32 1 0.24
2497 367 7 59 0 2 31 1 0.188
2498 368 0 0 0 5 31 1 0.551
2499 368 0 1 0 5 34 1 0.485
2500 368 0 2 1 8 33 1 0.408
2501 368 0 3 1 6 32 1 0.333
2502 368 0 4 1 8 31 1 0.374
2503 368 0 5 0 8 33 1 0.264
2504 368 0 6 1 3 31 1 0.399
2505 368 0 7 0 9 31 1 0.422
2506 368 0 8 0 4 32 1 0.475
2507 368 0 9 0 0 31 0 0.315
2508 368 0 10 1 0 32 0 0.26
2509 368 0 11 1 7 33 1 0.494
2510 368 0 12 0 8 31 1 0.481
2511 368 0 13 0 0 31 0 0.452
2512 368 0 14 1 5 31 0 0.466
2513 368 0 15 1 6 31 0 0.422
2514 368 0 16 1 7 40 1 0.23
2515 368 0 17 0 3 32 0 0.479
2516 368 0 18 1 0 32 0 0.45
2517 368 0 19 1 5 34 1 0.677
2518 368 0 20 1 0 33 0 0.576
2519 368 0 21 1 1 31 0 0.32
2520 368 0 22 1 5 32 1 0.409
2521 368 0 23 1 6 33 0 0.829
2522 368 0 24 0 4 31 1 0.804
2523 368 0 25 1 8 33 1 0.475
2524 368 0 26 1 2 32 0 0.474
2525 368 0 27 1 9 31 1 0.621
2526 368 0 28 0 8 33 1 0.763
2527 368 0 29 1 1 31 0 0.5
2528 368 0 30 1 0 35 0 0.564
2529 368 0 31 1 3 32 1 0.548
2530 368 0 32 1 2 37 0 0.306
2531 368 0 33 1 7 35 1 0.409
2532 368 0 34 1 3 34 0 0.493
2533 368 0 35 1 1 36 0 0.429
2534 368 0 36 1 5 34 1 0.4
2535 368 0 37 0 4 33 0 0.485
2536 368 0 38 1 9 32 1 0.584
2537 368 0 39 0 8 32 1 0.391
2538 368 0 40 0 7 32 1 0.348
2539 368 0 41 0 7 31 1 0.388
2540 368 0 42 1 9 32 1 0.33
2541 368 0 43 1 4 39 0 0.442
2542 368 0 44 1 6 32 1 0.526
2543 368 0 45 0 9 35 1 0.43
2544 368 0 46 0 1 32 0 0.476
2545 368 0 47 1 2 32 0 0.415
2546 368 0 48 0 8 38 1 0.481
2547 368 0 49 0 2 34 0 0.528
2548 368 0 50 0 5 34 1 0.336
2549 368 0 51 0 9 33 1 0.359
2550 368 0 52 0 7 33 0 0.542
2551 368 0 53 1 1 32 1 0.303
2552 368 0 54 0 7 31 1 0.377
2553 368 0 55 0 7 31 1 0.416
2554 368 0 56 1 9 32 1 0.261
2555 368 0 57 1 3 31 0 0.4
2556 368 0 58 0 3 32 1 0.405
2557 368 0 59 1 6 33 0 0.33
2558 368 1 0 0 7 31 1 0.556
2559 368 1 1 0 0 37 0 0.233
2560 368 1 2 1 6 32 1 0.293
2561 368 1 3 1 7 33 1 0.35
2562 368 1 4 0 9 31 1 0.566
2563 368 1 5 1 8 34 1 0.565
2564 368 1 6 1 5 33 1 0.26
2565 368 1 7 0 7 32 1 0.334
2566 368 1 8 1 7 31 1 0.391
2567 368 1 9 0 6 31 1 0.302
2568 368 1 10 0 6 32 1 0.311
2569 368 1 11 1 1 33 0 0.288
2570 368 1 12 1 4 34 0 0.584
2571 368 1 13 0 3 32 0 0.376
2572 368 1 14 1 6 31 1 0.447
2573 368 1 15 1 8 36 1 0.432
2574 368 1 16 1 2 31 0 0.373
2575 368 1 17 1 4 34 0 0.347
2576 368 1 18 0 4 31 0 0.499
2577 368 1 19 1 5 32 1 0.533
2578 368 1 20 0 2 31 0 0.295
2579 368 1 21 1 6 35 0 0.334
2580 368 1 22 1 3 31 1 0.343
2581 368 1 23 0 2 34 0 0.35
2582 368 1 24 0 3 31 1 0.23
2583 368 1 25 0 1 35 0 0.4
2584 368 1 26 1 5 34 0 0.245
2585 368 1 27 1 9 32 1 0.368
2586 368 1 28 0 9 36 1 0.244
2587 368 1 29 1 4 31 0 0.48
2588 368 1 30 0 1 38 0 0.511
2589 368 1 31 1 7 31 1 0.546
2590 368 1 32 1 4 38 0 0.606
2591 368 1 33 1 1 31 0 0.334
2592 368 1 34 0 7 38 1 0.37
2593 368 1 35 0 9 31 1 0.298
2594 368 1 36 1 4 31 0 0.468
2595 368 1 37 0 0 37 0 0.42
2596 368 1 38 0 0 31 0 0.522
2597 368 1 39 1 4 33 0 0.283
2598 368 1 40 0 8 31 1 0.341
2599 368 1 41 1 9 35 1 0.332
2600 368 1 42 0 4 31 1 0.436
2601 368 1 43 1 2 33 0 0.376
2602 368 1 44 1 3 33 0 0.286
2603 368 1 45 1 6 32 1 0.472
2604 368 1 46 0 7 32 1 0.332
2605 368 1 47 1 7 32 1 0.244
2606 368 1 48 1 3 31 0 0.335
2607 368 1 49 1 1 31 0 0.296
2608 368 1 50 0 0 31 0 0.226
2609 368 1 51 0 5 32 1 0.446
2610 368 1 52 0 5 31 1 0.322
2611 368 1 53 0 0 34 0 0.378
2612 368 1 54 1 0 33 0 0.304
2613 368 1 55 0 8 31 1 0.378
2614 368 1 56 1 2 32 0 0.416
2615 368 1 57 1 2 33 0 0.356
2616 368 1 58 0 5 31 0 0.285
2617 368 1 59 1 3 35 0 0.325
2618 368 2 0 0 0 36 0 0.442
2619 368 2 1 1 8 31 1 0.335
2620 368 2 2 0 9 31 1 0.407
2621 368 2 3 0 8 34 1 0.332
2622 368 2 4 0 8 33 1 0.307
2623 368 2 5 1 0 33 0 0.284
2624 368 2 6 1 9 33 1 0.277
2625 368 2 7 0 5 31 1 0.527
2626 368 2 8 1 9 32 0 0.352
2627 368 2 9 1 9 31 1 0.329
2628 368 2 10 0 6 33 1 0.273
2629 368 2 11 1 4 32 1 0.635
2630 368 2 12 0 8 33 1 0.376
2631 368 2 13 0 1 33 0 0.414
2632 368 2 14 1 3 31 0 0.324
2633 368 2 15 1 6 33 0 0.396
2634 368 2 16 0 1 34 1 0.305
2635 368 2 17 1 3 31 0 0.322
2636 368 2 18 1 9 32 1 0.443
2637 368 2 19 1 4 31 0 0.528
2638 368 2 20 1 2 31 0 0.417
2639 368 2 21 0 1 38 0 0.323
2640 368 2 22 0 3 32 0 0.316
2641 368 2 23 0 1 36 0 0.274
2642 368 2 24 0 3 31 0 0.349
2643 368 2 25 0 5 35 1 0.531
2644 368 2 26 1 5 36 1 0.561
2645 368 2 27 0 9 31 1 0.449
2646 368 2 28 1 5 32 1 0.565
2647 368 2 29 0 2 31 0 0.401
2648 368 2 30 1 1 31 0 0.311
2649 368 2 31 0 5 31 0 0.625
2650 368 2 32 1 5 33 0 0.494
2651 368 2 33 0 1 32 1 0.352
2652 368 2 34 1 3 32 0 0.792
2653 368 2 35 0 8 33 1 0.399
2654 368 2 36 1 2 33 0 0.308
2655 368 2 37 0 9 33 1 0.333
2656 368 2 38 1 8 34 1 0.532
2657 368 2 39 1 5 31 0 0.517
2658 368 2 40 1 2 32 0 0.439
2659 368 2 41 1 7 33 1 0.331
2660 368 2 42 0 9 32 1 0.387
2661 368 2 43 1 1 32 0 0.457
2662 368 2 44 0 0 31 0 0.589
2663 368 2 45 0 8 31 1 0.444
2664 368 2 46 0 5 33 1 0.832
2665 368 2 47 0 4 33 1 0.405
2666 368 2 48 1 3 33 0 0.331
2667 368 2 49 0 9 32 1 0.323
2668 368 2 50 0 9 32 1 0.427
2669 368 2 51 0 4 35 0 0.462
2670 368 2 52 1 5 36 1 0.543
2671 368 2 53 1 9 37 1 0.46
2672 368 2 54 1 8 34 1 0.382
2673 368 2 55 0 6 36 1 0.578
2674 368 2 56 1 0 31 0 0.434
2675 368 2 57 0 4 31 1 0.647
2676 368 2 58 1 5 31 0 0.372
2677 368 2 59 1 6 32 1 0.523
2678 368 3 0 1 7 40 1 0.546
2679 368 3 1 1 0 32 0 0.562
2680 368 3 2 1 4 39 1 0.734
2681 368 3 3 1 5 32 1 0.6
2682 368 3 4 0 5 33 1 0.502
2683 368 3 5 1 9 33 1 0.407
2684 368 3 6 0 1 37 0 0.538
2685 368 3 7 1 4 35 1 0.489
2686 368 3 8 0 4 32 0 0.54
2687 368 3 9 0 7 31 1 0.446
2688 368 3 10 0 0 31 0 0.53
2689 368 3 11 0 9 37 1 0.512
2690 368 3 12 0 3 35 0 0.526
2691 368 3 13 1 4 32 0 0.399
2692 368 3 14 1 8 35 1 0.307
2693 368 3 15 0 4 42 0 0.486
2694 368 3 16 1 6 31 0 0.729
2695 368 3 17 1 6 31 1 0.5
2696 368 3 18 0 0 32 0 0.39
2697 368 3 19 0 2 32 0 0.364
2698 368 3 20 1 9 31 1 0.42
2699 368 3 21 1 3 33 0 0.457
2700 368 3 22 1 0 34 0 0.363
2701 368 3 23 1 9 33 1 0.418
2702 368 3 24 0 5 31 0 0.663
2703 368 3 25 0 6 32 1 0.756
2704 368 3 26 0 7 33 1 0.444
2705 368 3 27 0 7 36 1 0.35
2706 368 3 28 0 8 35 1 0.276
2707 368 3 29 0 1 31 1 0.431
2708 368 3 30 0 4 33 0 0.243
2709 368 3 31 0 1 32 0 0.334
2710 368 3 32 1 7 32 1 0.391
2711 368 3 33 0 8 31 1 0.428
2712 368 3 34 0 0 39 1 0.332
2713 368 3 35 0 8 34 1 0.403
2714 368 3 36 0 3 31 0 0.361
2715 368 3 37 1 0 33 0 0.4
2716 368 3 38 1 3 31 0 0.63
2717 368 3 39 1 4 43 0 0.651
2718 368 3 40 0 9 33 1 0.295
2719 368 3 41 1 1 33 0 0.368
2720 368 3 42 0 4 31 1 0.503
2721 368 3 43 1 7 34 1 0.392
2722 368 3 44 1 6 31 1 0.511
2723 368 3 45 1 0 34 0 0.32
2724 368 3 46 0 4 33 0 0.376
2725 368 3 47 0 6 31 0 0.575
2726 368 3 48 0 3 32 0 0.494
2727 368 3 49 1 2 31 1 0.337
2728 368 3 50 1 3 32 0 0.521
2729 368 3 51 1 1 31 0 0.316
2730 368 3 52 1 2 31 0 0.261
2731 368 3 53 0 7 36 1 0.429
2732 368 3 54 0 2 31 0 0.45
2733 368 3 55 1 8 35 1 0.356
2734 368 3 56 1 9 32 1 0.412
2735 368 3 57 1 3 31 0 0.418
2736 368 3 58 0 5 31 0 0.488
2737 368 3 59 1 8 34 1 0.312
2738 368 4 0 0 5 34 1 0.758
2739 368 4 1 0 4 31 0 0.896
2740 368 4 2 0 8 35 1 0.379
2741 368 4 3 0 2 31 0 0.514
2742 368 4 4 0 8 31 1 0.34
2743 368 4 5 1 4 31 0 0.573
2744 368 4 6 1 0 31 0 0.525
2745 368 4 7 0 1 31 0 0.419
2746 368 4 8 1 6 31 1 0.552
2747 368 4 9 1 6 35 1 0.423
2748 368 4 10 1 8 33 1 0.364
2749 368 4 11 1 5 31 1 0.304
2750 368 4 12 1 0 35 0 0.264
2751 368 4 13 0 2 31 0 0.435
2752 368 4 14 1 2 36 0 0.357
2753 368 4 15 1 7 32 1 0.397
2754 368 4 16 0 5 31 0 0.467
2755 368 4 17 1 8 32 1 0.454
2756 368 4 18 0 2 33 0 0.378
2757 368 4 19 0 5 31 1 0.497
2758 368 4 20 0 5 33 1 0.562
2759 368 4 21 0 8 32 0 0.482
2760 368 4 22 0 2 31 0 0.437
2761 368 4 23 0 0 31 0 0.379
2762 368 4 24 1 9 31 1 0.418
2763 368 4 25 0 3 32 0 0.455
2764 368 4 26 0 6 31 1 0.427
2765 368 4 27 0 4 31 1 0.448
2766 368 4 28 0 9 32 1 0.452
2767 368 4 29 0 2 31 0 0.424
2768 368 4 30 0 1 35 0 0.444
2769 368 4 31 0 6 31 1 0.465
2770 368 4 32 1 0 31 0 0.533
2771 368 4 33 1 4 33 1 0.629
2772 368 4 34 0 9 31 1 0.467
2773 368 4 35 0 9 31 1 0.407
2774 368 4 36 0 6 38 1 1.066
2775 368 4 37 1 2 33 0 0.503
2776 368 4 38 1 5 34 0 0.44
2777 368 4 39 1 0 31 0 0.429
2778 368 4 40 1 4 34 0 0.529
2779 368 4 41 1 2 35 0 0.416
2780 368 4 42 0 2 31 0 0.341
2781 368 4 43 0 7 31 1 0.398
2782 368 4 44 1 7 32 1 0.564
2783 368 4 45 1 2 31 0 0.468
2784 368 4 46 0 7 31 1 0.44
2785 368 4 47 1 2 33 0 0.428
2786 368 4 48 0 0 33 0 0.464
2787 368 4 49 1 6 31 1 0.452
2788 368 4 50 0 2 32 0 0.6
2789 368 4 51 0 6 31 1 0.519
2790 368 4 52 0 6 32 1 0.521
2791 368 4 53 1 2 35 0 0.457
2792 368 4 54 0 3 34 0 0.348
2793 368 4 55 0 1 35 0 0.369
2794 368 4 56 0 5 31 0 0.313
2795 368 4 57 1 5 32 0 0.514
2796 368 4 58 0 7 32 1 0.323
2797 368 4 59 0 7 31 1 0.365
2798 368 5 0 0 3 31 1 0.559
2799 368 5 1 0 2 32 0 0.399
2800 368 5 2 0 7 33 1 0.308
2801 368 5 3 0 2 31 0 0.398
2802 368 5 4 1 3 31 0 0.325
2803 368 5 5 0 2 32 0 0.285
2804 368 5 6 0 7 32 1 0.359
2805 368 5 7 1 8 33 0 0.35
2806 368 5 8 0 2 41 1 0.784
2807 368 5 9 0 4 31 0 0.393
2808 368 5 10 0 8 32 1 0.286
2809 368 5 11 1 7 32 1 0.344
2810 368 5 12 0 6 34 1 0.975
2811 368 5 13 0 0 32 0 0.463
2812 368 5 14 1 5 40 1 0.51
2813 368 5 15 0 8 31 1 0.432
2814 368 5 16 0 4 31 0 0.501
2815 368 5 17 1 1 31 0 0.471
2816 368 5 18 0 6 32 1 0.474
2817 368 5 19 0 6 36 1 0.635
2818 368 5 20 0 2 31 0 0.601
2819 368 5 21 0 1 33 0 0.456
2820 368 5 22 0 9 31 1 0.444
2821 368 5 23 0 4 31 0 0.961
2822 368 5 24 0 1 32 0 0.466
2823 368 5 25 1 4 33 0 0.677
2824 368 5 26 1 7 31 1 0.401
2825 368 5 27 0 5 35 1 0.357
2826 368 5 28 0 7 31 1 0.317
2827 368 5 29 1 7 31 1 0.391
2828 368 5 30 0 1 32 0 0.797
2829 368 5 31 1 1 42 0 0.415
2830 368 5 32 1 2 31 0 0.388
2831 368 5 33 1 1 31 0 0.315
2832 368 5 34 1 2 32 0 0.292
2833 368 5 35 1 1 31 0 0.287
2834 368 5 36 0 7 31 1 0.345
2835 368 5 37 0 9 32 1 0.385
2836 368 5 38 1 1 33 0 0.718
2837 368 5 39 1 8 33 1 0.392
2838 368 5 40 1 4 37 0 0.491
2839 368 5 41 1 7 32 1 0.43
2840 368 5 42 0 3 35 1 0.481
2841 368 5 43 0 0 35 0 0.354
2842 368 5 44 1 5 32 1 0.489
2843 368 5 45 1 2 34 0 0.427
2844 368 5 46 1 2 37 0 0.477
2845 368 5 47 0 8 31 1 0.32
2846 368 5 48 1 7 34 1 0.488
2847 368 5 49 1 8 33 1 0.362
2848 368 5 50 1 0 33 0 0.384
2849 368 5 51 0 0 31 0 0.407
2850 368 5 52 0 0 35 0 0.331
2851 368 5 53 0 3 31 0 0.308
2852 368 5 54 0 6 33 1 0.38
2853 368 5 55 0 8 31 1 0.259
2854 368 5 56 1 7 31 1 0.334
2855 368 5 57 1 4 38 1 0.259
2856 368 5 58 0 6 32 1 0.398
2857 368 5 59 1 7 32 1 0.436
2858 368 6 0 1 7 34 1 0.523
2859 368 6 1 1 6 31 1 0.51
2860 368 6 2 0 9 31 1 0.416
2861 368 6 3 0 5 31 1 0.422
2862 368 6 4 0 4 31 1 0.7
2863 368 6 5 0 4 34 1 0.486
2864 368 6 6 1 1 31 0 0.281
2865 368 6 7 0 3 35 0 0.305
2866 368 6 8 0 0 31 0 0.331
2867 368 6 9 0 6 31 1 0.468
2868 368 6 10 1 8 31 1 0.36
2869 368 6 11 1 8 37 1 0.268
2870 368 6 12 0 9 38 1 0.275
2871 368 6 13 1 6 31 1 0.606
2872 368 6 14 1 1 31 0 0.285
2873 368 6 15 0 7 32 1 0.311
2874 368 6 16 1 4 31 0 0.288
2875 368 6 17 0 5 31 1 0.267
2876 368 6 18 1 6 32 1 0.485
2877 368 6 19 1 1 31 0 0.409
2878 368 6 20 1 3 33 0 0.302
2879 368 6 21 1 3 31 0 0.36
2880 368 6 22 1 3 36 0 0.509
2881 368 6 23 0 6 33 1 0.334
2882 368 6 24 0 3 36 1 0.34
2883 368 6 25 0 1 34 0 0.459
2884 368 6 26 0 0 34 0 0.302
2885 368 6 27 1 7 31 1 0.456
2886 368 6 28 1 0 32 0 0.38
2887 368 6 29 1 9 34 1 0.337
2888 368 6 30 0 9 32 1 0.377
2889 368 6 31 0 2 31 1 0.336
2890 368 6 32 1 5 31 0 0.665
2891 368 6 33 1 0 34 0 0.612
2892 368 6 34 0 3 31 1 0.274
2893 368 6 35 1 6 31 0 0.589
2894 368 6 36 1 1 32 0 0.445
2895 368 6 37 1 0 32 0 0.321
2896 368 6 38 0 5 33 1 0.361
2897 368 6 39 1 3 41 0 0.234
2898 368 6 40 0 1 31 0 0.359
2899 368 6 41 0 6 31 1 0.399
2900 368 6 42 1 1 31 0 0.469
2901 368 6 43 1 6 31 0 0.329
2902 368 6 44 1 4 31 0 0.578
2903 368 6 45 0 1 31 1 0.546
2904 368 6 46 0 2 33 1 0.401
2905 368 6 47 0 4 35 0 0.229
2906 368 6 48 1 7 34 1 0.352
2907 368 6 49 0 3 33 0 0.439
2908 368 6 50 0 6 31 1 0.604
2909 368 6 51 0 5 31 1 0.379
2910 368 6 52 1 1 35 0 0.432
2911 368 6 53 1 9 31 1 0.325
2912 368 6 54 1 8 32 1 0.414
2913 368 6 55 1 4 31 0 0.451
2914 368 6 56 0 1 31 0 0.568
2915 368 6 57 1 9 34 1 0.375
2916 368 6 58 1 5 34 1 0.924
2917 368 6 59 0 7 35 1 0.526
2918 368 7 0 0 7 32 1 0.487
2919 368 7 1 0 3 31 0 0.778
2920 368 7 2 1 4 31 0 0.547
2921 368 7 3 1 6 33 1 0.387
2922 368 7 4 1 8 32 1 0.345
2923 368 7 5 1 1 31 0 0.385
2924 368 7 6 1 2 32 0 0.375
2925 368 7 7 1 3 34 0 0.637
2926 368 7 8 0 2 31 0 0.363
2927 368 7 9 1 9 32 1 0.354
2928 368 7 10 1 6 41 1 0.581
2929 368 7 11 1 8 32 1 0.372
2930 368 7 12 1 8 31 1 0.331
2931 368 7 13 0 1 32 0 0.371
2932 368 7 14 0 8 34 1 0.345
2933 368 7 15 0 3 31 1 0.514
2934 368 7 16 1 4 31 0 0.548
2935 368 7 17 0 1 33 0 0.356
2936 368 7 18 0 4 37 0 0.297
2937 368 7 19 0 6 32 1 0.434
2938 368 7 20 1 3 31 0 0.407
2939 368 7 21 1 8 32 1 0.333
2940 368 7 22 0 3 31 0 0.662
2941 368 7 23 0 3 35 0 0.416
2942 368 7 24 1 1 32 0 0.469
2943 368 7 25 0 1 33 0 0.328
2944 368 7 26 1 8 33 1 0.367
2945 368 7 27 1 2 32 0 0.424
2946 368 7 28 1 5 33 1 0.572
2947 368 7 29 0 2 33 0 0.795
2948 368 7 30 0 9 36 1 0.416
2949 368 7 31 1 0 32 0 0.358
2950 368 7 32 0 3 36 0 0.395
2951 368 7 33 0 6 31 1 0.465
2952 368 7 34 0 4 32 1 0.389
2953 368 7 35 0 6 33 1 0.506
2954 368 7 36 1 0 33 0 0.395
2955 368 7 37 1 9 31 1 0.37
2956 368 7 38 0 0 34 0 0.407
2957 368 7 39 0 6 32 1 0.269
2958 368 7 40 1 0 33 0 0.263
2959 368 7 41 1 9 37 1 0.287
2960 368 7 42 0 0 32 0 0.377
2961 368 7 43 1 9 32 1 0.319
2962 368 7 44 0 8 35 1 0.39
2963 368 7 45 1 9 32 1 0.268
2964 368 7 46 1 7 31 1 0.343
2965 368 7 47 0 2 31 0 0.32
2966 368 7 48 1 5 32 0 0.472
2967 368 7 49 0 0 31 0 0.38
2968 368 7 50 0 3 32 0 0.37
2969 368 7 51 0 9 38 1 0.31
2970 368 7 52 1 3 32 0 0.399
2971 368 7 53 0 2 34 0 0.403
2972 368 7 54 1 0 32 0 0.377
2973 368 7 55 0 4 36 1 0.461
2974 368 7 56 0 5 32 0 0.432
2975 368 7 57 0 0 32 1 0.463
2976 368 7 58 1 5 31 0 0.771
2977 368 7 59 1 0 31 0 0.493
2978 369 0 0 1 4 32 1 1.115
2979 369 0 1 1 2 32 0 0.821
2980 369 0 2 0 4 35 1 0.899
2981 369 0 3 0 4 32 1 0.951
2982 369 0 4 0 8 32 1 0.79
2983 369 0 5 0 2 32 0 1.352
2984 369 0 6 1 8 31 1 0.661
2985 369 0 7 0 1 31 0 0.626
2986 369 0 8 0 8 33 1 0.863
2987 369 0 9 0 5 31 1 1.028
2988 369 0 10 0 6 32 1 0.85
2989 369 0 11 0 9 31 1 0.791
2990 369 0 12 1 5 34 1 0.844
2991 369 0 13 1 6 34 1 0.951
2992 369 0 14 1 0 36 0 0.9
2993 369 0 15 0 0 33 0 0.773
2994 369 0 16 1 9 31 1 0.893
2995 369 0 17 0 5 32 1 1.004
2996 369 0 18 1 0 31 0 0.877
2997 369 0 19 1 8 32 1 0.767
2998 369 0 20 1 2 33 0 0.751
2999 369 0 21 1 4 31 0 2.408
3000 369 0 22 1 3 31 0 1.189
3001 369 0 23 0 8 36 1 0.78
3002 369 0 24 1 6 34 1 1.068
3003 369 0 25 1 8 31 1 0.874
3004 369 0 26 0 2 35 0 1.091
3005 369 0 27 1 2 31 0 0.846
3006 369 0 28 0 4 35 0 2.018
3007 369 0 29 0 0 35 0 0.892
3008 369 0 30 0 4 32 0 1.215
3009 369 0 31 0 1 36 0 0.901
3010 369 0 32 0 0 31 0 0.938
3011 369 0 33 1 9 31 1 0.957
3012 369 0 34 1 7 32 1 0.908
3013 369 0 35 0 2 33 0 1.615
3014 369 0 36 1 1 33 0 0.98
3015 369 0 37 0 8 37 1 0.77
3016 369 0 38 1 7 34 1 0.682
3017 369 0 39 0 8 32 1 0.805
3018 369 0 40 1 3 32 0 1.15
3019 369 0 41 1 4 33 0 1.365
3020 369 0 42 1 0 33 0 0.76
3021 369 0 43 0 5 31 1 1.12
3022 369 0 44 1 1 32 0 0.843
3023 369 0 45 1 6 35 1 0.697
3024 369 0 46 0 5 32 1 0.868
3025 369 0 47 1 4 31 1 1.065
3026 369 0 48 1 4 32 0 1.255
3027 369 0 49 1 7 31 1 1.279
3028 369 0 50 0 3 33 1 2.467
3029 369 0 51 0 6 35 1 0.746
3030 369 0 52 1 2 32 0 0.707
3031 369 0 53 1 3 35 0 0.684
3032 369 0 54 0 7 36 1 0.783
3033 369 0 55 0 2 35 0 1.478
3034 369 0 56 1 6 31 1 0.757
3035 369 0 57 0 0 32 0 0.831
3036 369 0 58 1 5 32 1 3.199
3037 369 0 59 1 5 33 0 3.711
3038 369 1 0 0 3 31 1 1.434
3039 369 1 1 1 2 31 0 1.068
3040 369 1 2 0 4 33 1 3.721
3041 369 1 3 0 2 33 0 0.935
3042 369 1 4 0 9 32 1 0.617
3043 369 1 5 1 2 31 0 1
3044 369 1 6 1 4 46 0 1.456
3045 369 1 7 0 3 32 0 1.695
3046 369 1 8 1 4 31 0 2.311
3047 369 1 9 1 3 32 0 1.049
3048 369 1 10 1 9 31 1 0.744
3049 369 1 11 1 8 31 1 0.818
3050 369 1 12 0 8 31 1 0.809
3051 369 1 13 1 7 31 1 0.929
3052 369 1 14 1 0 31 0 0.724
3053 369 1 15 0 3 36 0 2.732
3054 369 1 16 1 0 33 0 0.861
3055 369 1 17 0 3 33 0 0.978
3056 369 1 18 1 2 31 0 0.915
3057 369 1 19 0 4 31 1 1.527
3058 369 1 20 1 3 32 0 2.564
3059 369 1 21 0 5 39 1 0.729
3060 369 1 22 0 4 35 1 1.569
3061 369 1 23 1 5 31 1 0.909
3062 369 1 24 0 8 31 1 0.865
3063 369 1 25 1 3 31 0 4.935
3064 369 1 26 0 4 31 1 1.195
3065 369 1 27 0 6 33 1 1.165
3066 369 1 28 0 2 38 1 1.204
3067 369 1 29 1 6 31 1 1.005
3068 369 1 30 1 8 31 1 0.877
3069 369 1 31 0 1 40 0 1.613
3070 369 1 32 0 0 34 0 0.918
3071 369 1 33 0 5 31 1 1.258
3072 369 1 34 1 8 31 1 0.994
3073 369 1 35 1 4 35 1 2.704
3074 369 1 36 1 4 34 1 2.338
3075 369 1 37 1 0 31 0 0.675
3076 369 1 38 1 9 37 1 0.7
3077 369 1 39 1 4 33 1 0.998
3078 369 1 40 1 5 31 0 2.791
3079 369 1 41 0 5 31 1 1.688
3080 369 1 42 0 6 32 1 0.799
3081 369 1 43 1 6 31 1 1.063
3082 369 1 44 0 2 31 0 1.334
3083 369 1 45 1 8 32 1 0.922
3084 369 1 46 1 9 31 1 0.718
3085 369 1 47 0 8 31 1 0.969
3086 369 1 48 0 3 31 0 2.012
3087 369 1 49 0 6 31 1 0.84
3088 369 1 50 1 9 35 1 0.691
3089 369 1 51 0 1 32 0 1.278
3090 369 1 52 0 0 32 0 0.965
3091 369 1 53 1 8 34 1 0.885
3092 369 1 54 1 7 32 1 0.873
3093 369 1 55 1 7 32 1 0.894
3094 369 1 56 1 6 31 1 0.867
3095 369 1 57 0 5 31 1 1.144
3096 369 1 58 1 0 32 0 0.819
3097 369 1 59 0 3 38 0 2.775
3098 369 2 0 0 9 33 1 0.814
3099 369 2 1 1 1 35 0 0.606
3100 369 2 2 1 7 31 1 0.717
3101 369 2 3 1 2 31 0 0.52
3102 369 2 4 0 1 31 0 0.731
3103 369 2 5 1 1 37 0 0.642
3104 369 2 6 1 6 33 0 2.318
3105 369 2 7 1 9 37 1 0.46
3106 369 2 8 0 4 35 1 1.133
3107 369 2 9 0 7 32 1 0.642
3108 369 2 10 1 9 32 1 0.639
3109 369 2 11 0 1 31 0 1.469
3110 369 2 12 0 8 32 1 0.685
3111 369 2 13 1 3 31 0 0.665
3112 369 2 14 1 7 32 0 3.855
3113 369 2 15 0 5 34 1 1.288
3114 369 2 16 0 7 32 1 0.798
3115 369 2 17 0 9 32 1 0.774
3116 369 2 18 1 2 33 0 0.905
3117 369 2 19 1 1 32 0 0.909
3118 369 2 20 0 1 32 0 0.961
3119 369 2 21 1 3 31 0 0.819
3120 369 2 22 0 2 33 0 0.688
3121 369 2 23 0 1 32 0 0.652
3122 369 2 24 1 5 33 0 2.12
3123 369 2 25 0 5 31 1 1.169
3124 369 2 26 0 2 33 0 0.955
3125 369 2 27 0 3 33 0 0.748
3126 369 2 28 0 8 32 1 0.765
3127 369 2 29 1 6 31 1 1.108
3128 369 2 30 0 5 34 1 0.967
3129 369 2 31 0 7 31 1 0.761
3130 369 2 32 0 9 31 1 0.77
3131 369 2 33 0 8 31 1 0.811
3132 369 2 34 0 3 32 1 1.602
3133 369 2 35 1 9 31 1 0.606
3134 369 2 36 0 9 32 1 0.749
3135 369 2 37 0 5 34 1 1.441
3136 369 2 38 1 9 35 1 0.74
3137 369 2 39 0 0 31 0 0.702
3138 369 2 40 0 5 34 1 1.096
3139 369 2 41 0 4 35 1 1.875
3140 369 2 42 1 2 36 0 0.673
3141 369 2 43 1 7 31 1 0.766
3142 369 2 44 1 1 32 0 0.774
3143 369 2 45 0 9 40 1 0.698
3144 369 2 46 0 7 35 1 0.724
3145 369 2 47 0 2 32 0 0.814
3146 369 2 48 1 1 33 0 0.676
3147 369 2 49 1 8 31 1 0.657
3148 369 2 50 0 7 33 1 0.669
3149 369 2 51 0 7 31 1 0.65
3150 369 2 52 0 9 39 1 0.562
3151 369 2 53 0 0 31 0 0.611
3152 369 2 54 0 1 31 0 0.641
3153 369 2 55 0 8 33 1 0.606
3154 369 2 56 1 1 31 0 0.589
3155 369 2 57 0 0 41 0 0.663
3156 369 2 58 1 7 31 1 0.612
3157 369 2 59 1 0 31 0 0.576
3158 369 3 0 0 7 34 1 0.653
3159 369 3 1 0 2 31 0 1.019
3160 369 3 2 1 7 35 1 0.601
3161 369 3 3 1 8 32 1 0.664
3162 369 3 4 0 4 31 1 1.332
3163 369 3 5 0 5 31 1 1.001
3164 369 3 6 1 2 36 0 0.615
3165 369 3 7 0 8 31 1 0.614
3166 369 3 8 1 9 32 1 0.628
3167 369 3 9 1 7 31 1 0.61
3168 369 3 10 1 2 42 0 0.602
3169 369 3 11 0 9 32 1 0.649
3170 369 3 12 1 3 31 0 0.662
3171 369 3 13 1 4 32 0 2.882
3172 369 3 14 1 0 32 0 0.575
3173 369 3 15 0 1 31 0 0.768
3174 369 3 16 1 8 34 1 0.694
3175 369 3 17 0 5 32 1 0.994
3176 369 3 18 0 0 33 0 0.657
3177 369 3 19 0 6 40 1 2.025
3178 369 3 20 0 8 33 1 0.723
3179 369 3 21 0 4 35 1 0.699
3180 369 3 22 0 7 33 1 0.566
3181 369 3 23 0 0 33 0 0.581
3182 369 3 24 0 4 31 1 1.797
3183 369 3 25 0 1 31 0 0.633
3184 369 3 26 0 2 31 0 1.063
3185 369 3 27 0 2 31 0 0.71
3186 369 3 28 0 7 32 1 1.104
3187 369 3 29 0 4 32 0 1.261
3188 369 3 30 0 9 34 1 0.803
3189 369 3 31 1 1 31 0 0.603
3190 369 3 32 1 6 40 1 0.805
3191 369 3 33 0 5 34 1 1.035
3192 369 3 34 1 9 35 1 0.705
3193 369 3 35 1 1 32 0 0.604
3194 369 3 36 0 0 31 0 0.635
3195 369 3 37 0 5 31 0 1.657
3196 369 3 38 0 3 33 0 1.377
3197 369 3 39 0 0 31 0 0.676
3198 369 3 40 0 9 31 1 0.737
3199 369 3 41 1 0 33 0 0.698
3200 369 3 42 1 5 32 1 2.005
3201 369 3 43 0 1 31 0 0.703
3202 369 3 44 1 2 32 0 0.666
3203 369 3 45 1 5 31 0 1.559
3204 369 3 46 1 4 31 1 0.771
3205 369 3 47 1 1 34 0 0.619
3206 369 3 48 1 2 33 0 0.52
3207 369 3 49 1 6 32 1 0.73
3208 369 3 50 0 8 31 1 0.708
3209 369 3 51 1 0 33 0 0.622
3210 369 3 52 0 7 32 1 0.634
3211 369 3 53 1 0 32 0 0.536
3212 369 3 54 1 7 32 1 0.908
3213 369 3 55 1 7 32 1 0.815
3214 369 3 56 1 1 32 0 0.678
3215 369 3 57 1 4 34 0 1.088
3216 369 3 58 1 2 31 0 0.83
3217 369 3 59 1 0 37 0 0.69
3218 369 4 0 1 3 31 0 1.121
3219 369 4 1 0 0 31 0 0.654
3220 369 4 2 0 7 31 1 0.683
3221 369 4 3 0 1 33 0 1.366
3222 369 4 4 0 6 33 1 0.536
3223 369 4 5 0 6 33 1 0.617
3224 369 4 6 0 3 31 0 2.439
3225 369 4 7 0 3 32 0 0.772
3226 369 4 8 1 5 31 0 1.645
3227 369 4 9 1 4 34 0 0.917
3228 369 4 10 0 6 32 1 0.729
3229 369 4 11 0 0 31 0 0.624
3230 369 4 12 0 6 32 1 1.102
3231 369 4 13 0 4 32 1 1.291
3232 369 4 14 0 4 34 0 1.296
3233 369 4 15 0 2 37 0 0.77
3234 369 4 16 0 5 31 0 1.435
3235 369 4 17 0 2 33 0 0.732
3236 369 4 18 0 0 39 0 0.529
3237 369 4 19 1 2 31 0 0.595
3238 369 4 20 0 1 31 0 0.658
3239 369 4 21 1 3 31 0 0.639
3240 369 4 22 0 7 38 1 0.521
3241 369 4 23 1 9 31 1 0.523
3242 369 4 24 0 1 32 0 0.573
3243 369 4 25 1 0 32 0 0.717
3244 369 4 26 1 6 31 1 1.528
3245 369 4 27 0 9 32 1 0.757
3246 369 4 28 1 4 31 1 2.43
3247 369 4 29 1 9 32 1 0.764
3248 369 4 30 1 8 32 1 0.644
3249 369 4 31 1 1 32 0 0.625
3250 369 4 32 0 3 33 0 1.278
3251 369 4 33 1 0 33 0 0.708
3252 369 4 34 1 3 32 0 1.374
3253 369 4 35 1 6 31 1 1.521
3254 369 4 36 0 3 33 1 1.615
3255 369 4 37 1 5 33 1 1.065
3256 369 4 38 1 7 33 1 0.63
3257 369 4 39 0 0 31 0 0.612
3258 369 4 40 0 7 34 1 0.625
3259 369 4 41 0 6 31 1 0.639
3260 369 4 42 1 0 32 0 0.476
3261 369 4 43 1 1 31 0 0.72
3262 369 4 44 0 5 35 1 1.016
3263 369 4 45 0 7 32 1 0.68
3264 369 4 46 0 1 31 0 0.836
3265 369 4 47 0 1 33 0 0.57
3266 369 4 48 1 2 31 0 0.714
3267 369 4 49 1 9 31 1 0.629
3268 369 4 50 1 6 39 1 0.54
3269 369 4 51 0 6 33 1 1.212
3270 369 4 52 0 9 31 1 0.709
3271 369 4 53 0 9 34 1 0.751
3272 369 4 54 1 5 32 1 2.088
3273 369 4 55 0 7 31 1 0.674
3274 369 4 56 0 9 31 1 0.654
3275 369 4 57 0 4 31 1 1.019
3276 369 4 58 1 3 32 0 1.387
3277 369 4 59 1 2 31 0 0.654
3278 369 5 0 0 7 39 1 0.515
3279 369 5 1 0 8 31 1 0.533
3280 369 5 2 1 8 35 1 0.58
3281 369 5 3 0 7 33 1 0.595
3282 369 5 4 1 1 34 0 0.656
3283 369 5 5 0 0 32 0 0.653
3284 369 5 6 0 0 32 0 0.618
3285 369 5 7 0 4 32 0 0.936
3286 369 5 8 1 7 31 1 0.843
3287 369 5 9 1 0 33 0 0.672
3288 369 5 10 1 7 31 1 0.877
3289 369 5 11 1 4 31 0 0.85
3290 369 5 12 1 9 33 1 0.695
3291 369 5 13 1 5 32 1 1.09
3292 369 5 14 0 1 31 0 0.752
3293 369 5 15 1 9 32 1 0.601
3294 369 5 16 1 0 31 0 0.632
3295 369 5 17 1 6 34 1 0.693
3296 369 5 18 1 7 32 1 1.536
3297 369 5 19 1 1 31 0 1.053
3298 369 5 20 1 9 36 1 0.649
3299 369 5 21 1 8 34 1 0.597
3300 369 5 22 1 3 36 0 1.009
3301 369 5 23 1 1 32 0 0.657
3302 369 5 24 1 7 33 1 0.653
3303 369 5 25 1 6 31 1 0.682
3304 369 5 26 0 3 33 0 1.909
3305 369 5 27 0 6 31 1 1.157
3306 369 5 28 1 5 33 0 2.719
3307 369 5 29 1 5 33 1 0.767
3308 369 5 30 0 8 34 1 0.663
3309 369 5 31 0 2 44 0 0.636
3310 369 5 32 1 1 32 0 0.873
3311 369 5 33 0 9 31 1 0.655
3312 369 5 34 1 4 32 0 0.972
3313 369 5 35 0 1 31 0 0.862
3314 369 5 36 1 8 36 1 0.753
3315 369 5 37 1 0 37 0 0.679
3316 369 5 38 1 2 31 0 1.123
3317 369 5 39 0 2 32 0 0.768
3318 369 5 40 0 3 32 0 0.801
3319 369 5 41 1 4 32 0 0.712
3320 369 5 42 1 7 31 1 0.931
3321 369 5 43 0 9 31 1 0.726
3322 369 5 44 0 9 31 1 0.593
3323 369 5 45 1 3 35 0 2.558
3324 369 5 46 0 4 31 0 2.023
3325 369 5 47 1 8 33 1 0.626
3326 369 5 48 0 6 34 1 0.622
3327 369 5 49 1 1 31 0 0.669
3328 369 5 50 0 9 39 1 0.661
3329 369 5 51 0 9 32 1 0.673
3330 369 5 52 1 4 35 0 2.411
3331 369 5 53 0 6 33 1 1.145
3332 369 5 54 1 9 32 1 0.74
3333 369 5 55 1 2 34 0 0.764
3334 369 5 56 1 3 31 0 1.221
3335 369 5 57 1 8 32 1 0.654
3336 369 5 58 0 3 34 0 0.921
3337 369 5 59 1 5 31 1 4.141
3338 369 6 0 1 9 34 1 0.613
3339 369 6 1 1 2 31 0 0.916
3340 369 6 2 0 2 31 0 0.664
3341 369 6 3 0 0 34 0 0.691
3342 369 6 4 1 0 32 0 0.718
3343 369 6 5 0 1 32 0 0.568
3344 369 6 6 1 3 33 0 1.016
3345 369 6 7 1 9 33 1 0.663
3346 369 6 8 1 8 31 1 0.628
3347 369 6 9 0 6 32 1 0.769
3348 369 6 10 1 1 31 0 0.65
3349 369 6 11 1 9 31 1 0.615
3350 369 6 12 1 8 31 1 0.614
3351 369 6 13 1 0 37 0 0.561
3352 369 6 14 0 1 35 0 0.639
3353 369 6 15 0 0 41 0 0.471
3354 369 6 16 0 5 31 0 1.963
3355 369 6 17 0 4 32 0 1.273
3356 369 6 18 0 8 32 1 0.639
3357 369 6 19 1 5 31 0 1.341
3358 369 6 20 0 2 32 0 0.561
3359 369 6 21 1 6 33 0 2.24
3360 369 6 22 0 7 31 1 0.613
3361 369 6 23 0 7 31 1 0.611
3362 369 6 24 1 7 35 1 0.64
3363 369 6 25 0 8 33 1 0.54
3364 369 6 26 0 8 31 1 0.702
3365 369 6 27 0 4 31 0 0.89
3366 369 6 28 1 7 31 1 1.014
3367 369 6 29 0 2 34 0 0.661
3368 369 6 30 1 8 31 1 0.578
3369 369 6 31 0 6 31 1 0.833
3370 369 6 32 0 7 34 1 0.63
3371 369 6 33 0 9 31 1 0.884
3372 369 6 34 1 6 37 1 0.71
3373 369 6 35 1 5 32 1 3.169
3374 369 6 36 0 3 33 0 0.732
3375 369 6 37 1 4 31 0 1.798
3376 369 6 38 1 8 32 1 0.662
3377 369 6 39 1 5 37 1 0.966
3378 369 6 40 1 3 34 0 0.855
3379 369 6 41 0 3 33 0 1.5
3380 369 6 42 1 9 32 1 0.75
3381 369 6 43 1 3 31 0 1.004
3382 369 6 44 1 2 31 0 0.667
3383 369 6 45 0 8 31 1 0.751
3384 369 6 46 0 8 37 1 0.677
3385 369 6 47 1 6 31 1 0.703
3386 369 6 48 0 7 33 1 0.676
3387 369 6 49 1 3 31 0 0.656
3388 369 6 50 0 9 31 1 0.622
3389 369 6 51 0 0 32 0 0.603
3390 369 6 52 0 7 31 1 0.635
3391 369 6 53 1 5 32 0 4.472
3392 369 6 54 1 2 31 0 0.588
3393 369 6 55 1 4 32 0 0.635
3394 369 6 56 1 3 34 0 0.711
3395 369 6 57 1 6 32 1 0.93
3396 369 6 58 0 2 32 0 0.645
3397 369 6 59 0 1 31 0 0.61
3398 369 7 0 1 6 32 1 0.639
3399 369 7 1 1 1 32 0 0.524
3400 369 7 2 1 7 35 1 0.444
3401 369 7 3 1 3 37 0 0.525
3402 369 7 4 0 4 33 1 2.046
3403 369 7 5 1 6 32 1 0.505
3404 369 7 6 1 4 33 1 0.49
3405 369 7 7 0 5 35 1 0.859
3406 369 7 8 1 1 32 0 0.561
3407 369 7 9 0 4 31 0 2.737
3408 369 7 10 1 7 31 1 0.612
3409 369 7 11 0 0 31 0 0.722
3410 369 7 12 1 1 33 0 0.522
3411 369 7 13 1 5 31 1 0.556
3412 369 7 14 0 3 31 0 1.645
3413 369 7 15 0 9 31 1 0.599
3414 369 7 16 0 5 31 0 1.334
3415 369 7 17 0 6 31 1 0.635
3416 369 7 18 0 1 33 0 0.536
3417 369 7 19 0 0 32 0 0.649
3418 369 7 20 0 3 31 0 0.823
3419 369 7 21 0 5 31 1 1.822
3420 369 7 22 1 0 31 0 0.562
3421 369 7 23 1 6 33 1 0.945
3422 369 7 24 1 0 32 0 0.499
3423 369 7 25 1 8 31 1 0.534
3424 369 7 26 1 0 32 0 0.503
3425 369 7 27 0 6 32 1 0.537
3426 369 7 28 1 3 34 0 0.569
3427 369 7 29 0 9 32 1 0.441
3428 369 7 30 0 2 31 0 0.398
3429 369 7 31 0 6 39 1 0.639
3430 369 7 32 1 9 36 1 0.554
3431 369 7 33 1 8 34 1 0.458
3432 369 7 34 0 6 39 1 0.697
3433 369 7 35 0 4 31 1 2.421
3434 369 7 36 1 5 31 1 1.763
3435 369 7 37 0 1 33 0 0.711
3436 369 7 38 0 5 32 0 5.474
3437 369 7 39 0 8 31 1 0.434
3438 369 7 40 1 3 31 0 0.616
3439 369 7 41 1 1 35 0 0.532
3440 369 7 42 0 7 31 1 0.517
3441 369 7 43 1 6 31 1 0.679
3442 369 7 44 1 5 34 1 0.594
3443 369 7 45 0 6 33 1 0.736
3444 369 7 46 0 3 33 0 1.033
3445 369 7 47 0 6 32 1 0.777
3446 369 7 48 0 2 33 0 0.736
3447 369 7 49 0 3 35 0 0.664
3448 369 7 50 1 5 32 1 1.348
3449 369 7 51 1 8 32 1 0.712
3450 369 7 52 1 5 32 0 2.803
3451 369 7 53 1 4 33 0 0.562
3452 369 7 54 1 2 31 0 0.658
3453 369 7 55 0 3 31 0 0.719
3454 369 7 56 0 8 33 1 0.745
3455 369 7 57 0 2 31 0 0.771
3456 369 7 58 1 4 31 0 1.308
3457 369 7 59 0 6 33 1 0.72
3458 370 0 0 1 4 33 1 0.681
3459 370 0 1 1 8 32 1 0.388
3460 370 0 2 1 1 34 0 0.252
3461 370 0 3 0 7 31 1 0.405
3462 370 0 4 1 6 39 0 0.302
3463 370 0 5 0 3 33 1 0.451
3464 370 0 6 0 4 31 0 0.807
3465 370 0 7 0 1 31 0 0.544
3466 370 0 8 1 6 34 1 0.37
3467 370 0 9 1 6 33 1 0.487
3468 370 0 10 0 1 34 0 0.504
3469 370 0 11 0 5 31 1 0.423
3470 370 0 12 1 5 40 0 0.485
3471 370 0 13 0 4 35 0 0.518
3472 370 0 14 0 8 34 1 0.318
3473 370 0 15 0 8 32 0 0.534
3474 370 0 16 1 1 32 0 0.598
3475 370 0 17 0 3 32 0 0.493
3476 370 0 18 1 4 33 0 0.479
3477 370 0 19 0 7 32 1 0.382
3478 370 0 20 1 1 31 1 0.613
3479 370 0 21 1 7 31 1 0.45
3480 370 0 22 1 2 35 0 0.435
3481 370 0 23 1 7 31 1 0.52
3482 370 0 24 0 2 31 0 0.471
3483 370 0 25 0 9 36 1 0.358
3484 370 0 26 1 2 32 0 0.494
3485 370 0 27 1 8 31 1 0.433
3486 370 0 28 1 8 32 1 0.421
3487 370 0 29 0 7 32 1 0.458
3488 370 0 30 0 7 32 1 0.398
3489 370 0 31 1 0 31 0 0.443
3490 370 0 32 1 6 33 0 0.398
3491 370 0 33 0 6 33 1 0.367
3492 370 0 34 1 9 34 1 0.352
3493 370 0 35 1 3 31 0 0.502
3494 370 0 36 1 7 32 1 0.424
3495 370 0 37 0 4 31 0 0.59
3496 370 0 38 1 1 33 0 0.396
3497 370 0 39 1 3 32 0 0.306
3498 370 0 40 1 0 32 0 0.315
3499 370 0 41 1 3 31 0 0.293
3500 370 0 42 0 5 31 1 0.383
3501 370 0 43 0 2 33 0 0.581
3502 370 0 44 0 2 33 0 0.404
3503 370 0 45 0 6 31 1 0.666
3504 370 0 46 1 1 34 0 0.341
3505 370 0 47 1 9 31 1 0.414
3506 370 0 48 0 6 31 1 0.372
3507 370 0 49 0 9 32 1 0.507
3508 370 0 50 0 4 32 0 0.461
