datID sessionID block trial WordInt ColorInt TrueInt Cong Correct Response rt
1 203 0 0 0 1 3 0 1 3 0.942
2 203 0 1 0 0 0 1 1 0 0.81
3 203 0 2 3 3 2 2 0 3 1.135
4 203 0 3 3 3 0 2 2 -1 1.364
5 203 0 4 2 2 0 1 0 2 1.202
6 203 0 5 1 0 0 0 1 0 0.986
7 203 0 6 0 0 0 2 1 0 0.728
8 203 0 7 0 0 0 2 1 0 0.641
9 203 0 8 1 1 0 2 1 0 0.736
10 203 0 9 0 0 3 2 1 3 1.032
11 203 0 10 3 1 2 0 1 2 2.634
12 203 0 11 0 0 2 2 1 2 0.654
13 203 0 12 2 2 2 2 1 2 0.913
14 203 0 13 3 3 1 1 1 1 0.879
15 203 0 14 2 2 0 1 0 3 0.783
16 203 0 15 1 1 0 2 1 0 0.88
17 203 0 16 0 1 2 0 1 2 0.712
18 203 0 17 0 0 2 2 1 2 0.615
19 203 0 18 3 3 2 2 1 2 0.772
20 203 0 19 2 2 3 1 1 3 1.879
21 203 0 20 2 3 2 0 1 2 0.914
22 203 0 21 2 2 1 2 1 1 0.652
23 203 0 22 0 0 2 1 1 2 0.715
24 203 0 23 1 1 0 2 1 0 0.788
25 203 0 24 3 3 3 1 1 3 0.575
26 203 0 25 0 1 2 0 1 2 0.673
27 203 0 26 2 0 2 0 1 2 0.599
28 203 0 27 2 2 3 2 1 3 1.436
29 203 0 28 0 0 1 1 1 1 0.776
30 203 0 29 0 1 0 0 1 0 0.795
31 203 0 30 3 2 1 0 0 2 2.117
32 203 0 31 3 3 1 2 1 1 0.775
33 203 0 32 0 0 0 2 1 0 0.701
34 203 0 33 2 3 0 0 0 2 0.747
35 203 0 34 3 3 1 1 1 1 0.994
36 203 0 35 1 2 3 0 0 2 0.702
37 203 0 36 3 2 3 0 1 3 0.655
38 203 0 37 1 2 3 0 1 3 0.71
39 203 0 38 3 1 1 0 1 1 0.747
40 203 0 39 1 1 1 2 1 1 1.067
41 203 0 40 2 3 3 0 1 3 0.842
42 203 0 41 1 1 1 2 1 1 1.574
43 203 0 42 2 2 0 2 1 0 0.712
44 203 0 43 1 1 1 1 1 1 0.853
45 203 0 44 1 1 2 2 1 2 0.745
46 203 0 45 0 0 2 2 1 2 0.744
47 203 0 46 1 1 3 2 1 3 1.232
48 203 0 47 3 3 0 1 1 0 1.058
49 203 0 48 0 0 2 1 1 2 0.779
50 203 0 49 2 2 3 2 1 3 1.25
51 203 0 50 3 3 2 1 1 2 0.716
52 203 0 51 3 3 2 2 1 2 1.052
53 203 0 52 3 3 0 1 1 0 0.605
54 203 0 53 2 3 3 0 1 3 1.054
55 203 0 54 0 1 2 0 1 2 0.591
56 203 0 55 3 3 2 1 1 2 0.504
57 203 0 56 3 1 0 0 1 0 1.701
58 203 0 57 3 3 2 1 1 2 0.702
59 203 0 58 0 2 0 0 0 2 0.732
60 203 0 59 3 2 3 0 1 3 0.444
61 203 0 60 2 2 1 2 1 1 0.678
62 203 0 61 1 1 3 1 1 3 1.581
63 203 0 62 2 3 3 0 1 3 0.547
64 203 0 63 2 0 1 0 1 1 1.031
65 203 0 64 3 3 2 1 1 2 1.176
66 203 0 65 3 3 1 2 1 1 0.888
67 203 0 66 2 2 0 1 1 0 0.807
68 203 0 67 3 3 2 1 1 2 0.537
69 203 0 68 1 1 0 2 1 0 0.928
70 203 0 69 0 0 2 2 1 2 1.769
71 203 0 70 0 1 3 0 1 3 0.504
72 203 0 71 2 1 0 0 1 0 1.237
73 203 0 72 2 2 0 2 1 0 0.459
74 203 0 73 3 3 2 1 1 2 0.497
75 203 0 74 3 3 0 1 1 0 0.582
76 203 0 75 2 2 3 1 1 3 1.904
77 203 0 76 1 1 1 2 1 1 1.03
78 203 0 77 1 0 2 0 0 1 1.192
79 203 0 78 2 2 0 2 1 0 1.443
80 203 0 79 0 0 2 1 1 2 0.638
81 203 1 80 2 2 3 1 0 2 0.416
82 203 1 81 1 1 3 2 1 3 0.439
83 203 1 82 0 0 0 1 1 0 0.862
84 203 1 83 0 0 2 1 1 2 0.382
85 203 1 84 0 0 1 2 0 0 0.883
86 203 1 85 2 2 0 1 0 2 0.397
87 203 1 86 0 1 2 0 1 2 0.921
88 203 1 87 0 0 2 1 1 2 0.359
89 203 1 88 1 1 2 1 1 2 0.465
90 203 1 89 3 2 0 0 1 0 0.679
91 203 1 90 0 0 2 1 1 2 0.846
92 203 1 91 3 3 0 2 1 0 1.186
93 203 1 92 0 0 3 2 1 3 0.449
94 203 1 93 0 0 2 1 1 2 0.896
95 203 1 94 2 2 1 2 0 3 4.059
96 203 1 95 2 2 2 1 1 2 0.445
97 203 1 96 0 0 0 2 1 0 0.864
98 203 1 97 1 0 2 0 0 0 1.215
99 203 1 98 2 3 0 0 1 0 0.902
100 203 1 99 2 2 2 1 1 2 0.573
101 203 1 100 1 1 1 1 1 1 1.183
102 203 1 101 3 1 1 0 1 1 0.779
103 203 1 102 1 1 1 1 1 1 0.414
104 203 1 103 2 0 0 0 0 2 0.814
105 203 1 104 0 0 2 1 1 2 0.643
106 203 1 105 0 1 2 0 1 2 1.955
107 203 1 106 1 1 2 1 1 2 0.716
108 203 1 107 1 0 3 0 1 3 0.529
109 203 1 108 0 0 3 1 1 3 0.401
110 203 1 109 0 1 0 0 1 0 0.754
111 203 1 110 1 1 0 2 1 0 0.481
112 204 0 0 2 2 0 2 1 0 0.809
113 203 1 111 3 3 0 2 1 0 0.762
114 204 0 1 2 2 0 2 1 0 0.438
115 203 1 112 2 1 0 0 1 0 0.622
116 204 0 2 2 2 3 2 1 3 0.832
117 203 1 113 1 1 3 2 1 3 1.218
118 204 0 3 1 1 0 2 1 0 0.78
119 203 1 114 0 2 1 0 0 3 1.157
120 204 0 4 1 1 3 2 1 3 0.762
121 204 0 5 1 1 3 2 1 3 0.313
122 203 1 115 1 2 2 0 1 2 0.981
123 204 0 6 0 0 3 2 1 3 0.999
124 203 1 116 1 1 3 2 1 3 1.829
125 204 0 7 2 2 2 1 0 0 0.714
126 203 1 117 0 0 3 1 1 3 0.362
127 203 1 118 2 2 1 2 0 3 0.799
128 204 0 8 3 1 1 0 1 1 1.162
129 203 1 119 1 1 0 1 1 0 0.613
130 204 0 9 3 2 3 0 0 1 0.806
131 203 1 120 1 2 2 0 1 2 0.606
132 204 0 10 0 0 0 1 1 0 0.531
133 203 1 121 1 1 3 1 1 3 0.399
134 204 0 11 1 0 0 0 1 0 2.47
135 203 1 122 3 1 2 0 1 2 2.119
136 204 0 12 2 2 3 2 0 0 1.8
137 203 1 123 2 2 2 2 1 2 0.766
138 204 0 13 1 1 1 1 1 1 1.089
139 203 1 124 0 0 1 1 1 1 0.697
140 204 0 14 2 2 0 2 1 0 0.595
141 203 1 125 0 0 2 2 1 2 0.546
142 204 0 15 2 2 3 1 1 3 0.484
143 203 1 126 0 0 3 2 1 3 0.769
144 204 0 16 2 1 2 0 1 2 0.713
145 203 1 127 3 3 3 1 1 3 0.644
146 204 0 17 1 1 2 2 1 2 0.297
147 203 1 128 3 3 3 1 1 3 0.324
148 204 0 18 0 0 0 2 1 0 0.568
149 203 1 129 2 2 1 2 1 1 0.698
150 204 0 19 2 3 0 0 0 3 0.682
151 203 1 130 1 1 3 1 1 3 0.671
152 203 1 131 0 0 2 2 1 2 1.21
153 204 0 20 2 2 1 1 1 1 2.939
154 203 1 132 1 1 3 1 1 3 0.365
155 204 0 21 3 3 0 1 1 0 0.615
156 204 0 22 0 0 0 2 1 0 0.443
157 203 1 133 0 2 3 0 1 3 1.583
158 203 1 134 0 2 1 0 1 1 0.693
159 204 0 23 1 1 1 1 1 1 0.865
160 203 1 135 2 2 2 1 1 2 0.619
161 204 0 24 2 2 2 1 1 2 0.696
162 204 0 25 2 1 1 0 0 2 0.87
163 203 1 136 1 1 2 1 1 2 1.363
164 204 0 26 0 0 1 1 1 1 0.576
165 203 1 137 1 1 1 1 1 1 0.425
166 204 0 27 0 0 3 2 1 3 0.485
167 203 1 138 3 1 3 0 1 3 0.489
168 204 0 28 1 1 3 2 1 3 0.494
169 203 1 139 1 1 0 2 0 2 1.081
170 204 0 29 0 0 0 1 1 0 0.434
171 203 1 140 1 1 1 1 1 1 0.741
172 204 0 30 2 2 1 1 0 2 1.32
173 203 1 141 2 2 1 1 0 0 1.029
174 204 0 31 3 3 1 1 1 1 0.899
175 203 1 142 0 2 0 0 0 1 0.707
176 203 1 143 2 2 0 1 0 2 0.46
177 204 0 32 3 0 1 0 1 1 1.225
178 203 1 144 1 1 0 2 1 0 0.777
179 204 0 33 1 0 3 0 0 1 1.315
180 203 1 145 0 0 1 1 1 1 0.684
181 204 0 34 0 0 0 2 1 0 0.513
182 203 1 146 0 0 3 2 1 3 0.494
183 204 0 35 0 1 3 0 1 3 0.709
184 203 1 147 1 2 1 0 1 1 1.011
185 204 0 36 2 2 3 1 1 3 0.514
186 204 0 37 1 1 3 1 1 3 0.422
187 203 1 148 3 3 2 1 1 2 1.325
188 204 0 38 3 0 3 0 0 0 0.589
189 203 1 149 0 0 3 2 1 3 0.464
190 204 0 39 2 2 1 2 0 2 0.693
191 203 1 150 2 1 1 0 1 1 0.566
192 204 0 40 3 3 2 1 1 2 0.547
193 203 1 151 2 0 3 0 0 1 1.568
194 204 0 41 1 1 0 2 1 0 0.569
195 203 1 152 3 3 3 1 1 3 0.37
196 204 0 42 2 2 0 1 1 0 0.907
197 203 1 153 2 2 1 2 1 1 0.574
198 204 0 43 2 2 3 2 1 3 0.516
199 203 1 154 0 0 2 2 1 2 1.196
200 204 0 44 3 3 3 2 1 3 0.379
201 203 1 155 1 2 0 0 0 1 0.584
202 204 0 45 2 2 0 1 0 3 0.482
203 203 1 156 2 1 1 0 1 1 0.565
204 204 0 46 3 0 0 0 1 0 0.891
205 203 1 157 1 1 0 2 0 1 0.627
206 204 0 47 1 1 3 2 1 3 0.501
207 203 1 158 3 3 0 1 1 0 0.943
208 204 0 48 3 3 1 1 1 1 1.177
209 203 1 159 1 1 0 2 1 0 0.488
210 204 0 49 1 1 0 1 1 0 0.597
211 204 0 50 2 2 3 2 0 2 0.554
212 204 0 51 3 3 0 2 0 3 0.467
213 203 2 160 2 2 0 1 0 2 0.527
214 204 0 52 1 1 0 2 1 0 0.432
215 203 2 161 0 0 2 2 1 2 0.794
216 204 0 53 0 1 2 0 1 2 0.871
217 203 2 162 3 0 0 0 1 0 0.588
218 204 0 54 0 0 2 1 1 2 0.446
219 203 2 163 3 2 1 0 1 1 0.526
220 204 0 55 2 0 3 0 1 3 0.484
221 203 2 164 1 1 2 2 1 2 0.845
222 204 0 56 1 1 1 1 1 1 1.048
223 203 2 165 1 1 0 2 1 0 0.609
224 204 0 57 1 1 0 2 1 0 0.685
225 203 2 166 3 1 0 0 1 0 0.394
226 204 0 58 0 1 0 0 1 0 0.603
227 203 2 167 0 0 1 1 1 1 0.747
228 204 0 59 1 1 2 2 1 2 0.559
229 203 2 168 0 0 2 1 1 2 0.463
230 204 0 60 0 0 0 2 1 0 0.42
231 203 2 169 0 0 1 1 1 1 0.525
232 204 0 61 3 3 0 2 0 3 1.071
233 203 2 170 1 2 0 0 1 0 0.721
234 204 0 62 1 1 0 1 1 0 0.626
235 203 2 171 0 1 0 0 1 0 1.406
236 204 0 63 2 2 1 1 0 0 1.506
237 203 2 172 0 0 0 1 1 0 0.986
238 204 0 64 1 2 2 0 1 2 0.534
239 203 2 173 3 3 3 2 1 3 0.513
240 204 0 65 3 2 1 0 1 1 0.664
241 203 2 174 1 1 2 1 0 1 0.733
242 204 0 66 1 0 1 0 0 0 0.567
243 203 2 175 3 3 3 2 1 3 0.416
244 204 0 67 3 3 0 1 1 0 0.476
245 203 2 176 1 0 1 0 1 1 1.72
246 204 0 68 0 1 2 0 0 1 1.264
247 203 2 177 3 3 3 1 1 3 0.537
248 204 0 69 2 2 2 2 1 2 0.624
249 203 2 178 3 0 1 0 0 2 1.901
250 204 0 70 3 3 0 1 1 0 0.48
251 204 0 71 0 0 1 1 0 2 0.613
252 203 2 179 2 3 3 0 1 3 1.251
253 203 2 180 1 1 3 2 1 3 0.344
254 204 0 72 1 1 0 1 1 0 0.793
255 203 2 181 2 2 0 2 1 0 1.062
256 204 0 73 3 1 3 0 0 0 1.698
257 203 2 182 3 3 2 1 1 2 1.071
258 204 0 74 1 1 2 2 1 2 0.627
259 203 2 183 1 1 2 1 1 2 0.439
260 204 0 75 1 1 1 2 1 1 0.758
261 203 2 184 0 0 2 1 1 2 0.726
262 204 0 76 3 0 2 0 1 2 0.513
263 203 2 185 1 1 2 1 1 2 0.458
264 204 0 77 3 3 2 2 1 2 0.648
265 203 2 186 3 3 2 2 1 2 0.355
266 204 0 78 1 0 2 0 0 0 1.015
267 203 2 187 2 0 2 0 1 2 0.365
268 204 0 79 2 3 1 0 1 1 0.652
269 203 2 188 2 2 1 2 0 3 1.515
270 203 2 189 3 1 0 0 1 0 0.535
271 203 2 190 2 2 1 2 1 1 0.653
272 203 2 191 3 3 0 1 1 0 0.564
273 203 2 192 3 3 3 2 0 2 0.379
274 203 2 193 2 3 0 0 1 0 0.688
275 204 1 80 1 1 2 2 1 2 0.687
276 203 2 194 0 1 0 0 1 0 0.941
277 204 1 81 3 3 3 2 1 3 0.736
278 203 2 195 3 3 1 2 1 1 1.566
279 204 1 82 1 1 2 1 0 1 0.812
280 203 2 196 3 3 2 2 1 2 0.696
281 204 1 83 2 1 0 0 0 1 0.889
282 203 2 197 2 2 3 2 1 3 0.449
283 204 1 84 0 0 3 1 1 3 0.45
284 203 2 198 0 0 1 2 1 1 0.603
285 203 2 199 2 2 3 2 1 3 0.504
286 204 1 85 0 2 1 0 1 1 1.577
287 203 2 200 1 1 0 2 1 0 0.808
288 204 1 86 0 0 0 2 1 0 0.57
289 204 1 87 1 0 0 0 1 0 0.636
290 203 2 201 1 2 2 0 1 2 2.626
291 204 1 88 1 0 1 0 0 2 0.667
292 203 2 202 3 3 3 2 1 3 0.438
293 204 1 89 0 0 3 2 1 3 0.464
294 203 2 203 2 2 2 2 0 0 1.47
295 204 1 90 0 2 2 0 0 1 1.142
296 203 2 204 2 2 3 2 1 3 0.375
297 204 1 91 1 2 0 0 0 1 0.742
298 203 2 205 3 3 1 2 1 1 0.667
299 204 1 92 1 2 3 0 1 3 0.47
300 203 2 206 0 1 0 0 1 0 0.65
301 204 1 93 0 1 3 0 0 1 0.571
302 203 2 207 1 1 1 1 1 1 0.993
303 204 1 94 3 3 2 1 1 2 0.653
304 203 2 208 1 1 1 2 0 0 0.376
305 204 1 95 2 2 1 2 1 1 0.639
306 203 2 209 0 2 3 0 0 2 0.709
307 204 1 96 3 3 3 1 1 3 0.446
308 203 2 210 2 2 1 1 1 1 0.733
309 204 1 97 0 0 1 1 0 2 0.629
310 203 2 211 0 1 1 0 1 1 0.738
311 204 1 98 1 1 0 2 1 0 2.652
312 203 2 212 3 3 1 2 0 2 1.37
313 204 1 99 3 1 3 0 1 3 0.867
314 203 2 213 3 3 3 2 1 3 0.383
315 203 2 214 1 1 0 2 1 0 0.881
316 204 1 100 1 2 3 0 0 0 2.424
317 203 2 215 2 2 2 1 1 2 0.545
318 204 1 101 1 1 3 2 0 0 1.214
319 203 2 216 2 2 1 1 1 1 0.5
320 204 1 102 0 0 1 2 1 1 1.216
321 203 2 217 0 0 1 1 1 1 2.52
322 204 1 103 3 3 1 1 1 1 1.019
323 203 2 218 3 3 0 1 1 0 0.589
324 204 1 104 0 0 0 2 1 0 0.896
325 203 2 219 3 3 0 1 1 0 0.406
326 204 1 105 1 1 2 2 1 2 0.858
327 203 2 220 2 2 1 1 1 1 1.014
328 204 1 106 0 0 0 2 2 -1 0.933
329 203 2 221 2 2 3 2 0 1 2.356
330 203 2 222 2 0 0 0 0 1 0.546
331 204 1 107 0 0 1 2 1 1 1.096
332 203 2 223 2 1 3 0 1 3 0.745
333 204 1 108 0 1 0 0 0 1 1.111
334 203 2 224 0 0 0 1 1 0 0.797
335 204 1 109 3 3 1 2 1 1 1.66
336 203 2 225 1 2 2 0 1 2 0.559
337 204 1 110 3 3 3 2 1 3 0.555
338 203 2 226 3 3 2 1 1 2 1.042
339 204 1 111 3 3 2 1 1 2 0.429
340 203 2 227 1 2 2 0 1 2 0.516
341 204 1 112 2 1 2 0 0 1 0.644
342 203 2 228 0 0 3 2 1 3 0.428
343 204 1 113 3 2 3 0 0 0 0.295
344 203 2 229 2 2 1 1 1 1 0.771
345 204 1 114 1 1 3 1 1 3 0.576
346 204 1 115 1 1 2 2 1 2 0.453
347 203 2 230 0 2 3 0 1 3 2.182
348 204 1 116 3 3 1 2 1 1 0.703
349 203 2 231 2 2 1 2 1 1 0.634
350 203 2 232 2 2 2 1 1 2 0.41
351 204 1 117 0 0 1 1 1 1 1.099
352 203 2 233 2 2 3 2 1 3 0.406
353 204 1 118 3 3 1 2 1 1 0.477
354 203 2 234 1 1 2 2 1 2 0.706
355 204 1 119 1 2 2 0 0 1 0.611
356 204 1 120 1 1 3 1 1 3 0.534
357 203 2 235 2 2 3 1 1 3 0.943
358 203 2 236 2 3 1 0 1 1 0.532
359 204 1 121 1 0 0 0 0 1 1.049
360 204 1 122 1 1 0 2 0 1 0.625
361 203 2 237 3 3 0 1 0 2 0.912
362 204 1 123 1 1 2 1 1 2 0.852
363 203 2 238 2 0 0 0 1 0 0.754
364 204 1 124 1 0 3 0 0 0 0.492
365 203 2 239 3 3 0 1 1 0 0.589
366 204 1 125 3 3 0 1 1 0 0.724
367 204 1 126 3 3 1 1 1 1 0.736
368 204 1 127 3 3 3 1 1 3 0.476
369 204 1 128 0 0 3 1 0 0 0.48
370 204 1 129 3 2 0 0 1 0 0.441
371 204 1 130 0 0 2 1 1 2 0.527
372 203 3 240 2 2 0 1 1 0 0.711
373 204 1 131 3 3 2 1 1 2 0.506
374 204 1 132 1 2 2 0 0 1 0.525
375 203 3 241 0 1 2 0 0 1 1.036
376 204 1 133 2 2 2 1 1 2 0.435
377 203 3 242 0 0 0 1 1 0 0.769
378 204 1 134 1 1 3 1 1 3 0.922
379 203 3 243 1 1 0 2 1 0 0.696
380 203 3 244 3 3 2 1 1 2 0.63
381 204 1 135 0 0 1 2 1 1 1.122
382 203 3 245 1 1 1 2 1 1 0.705
383 204 1 136 3 3 3 1 1 3 0.527
384 203 3 246 1 1 2 1 1 2 0.671
385 204 1 137 3 3 1 2 1 1 0.63
386 203 3 247 2 3 0 0 0 2 0.525
387 204 1 138 0 0 0 1 1 0 0.598
388 204 1 139 0 0 3 2 1 3 0.49
389 203 3 248 3 3 0 2 1 0 0.792
390 204 1 140 1 2 1 0 1 1 0.783
391 203 3 249 2 2 3 1 0 1 1.106
392 204 1 141 2 2 1 1 1 1 1.385
393 203 3 250 0 1 3 0 0 1 2.717
394 204 1 142 2 2 0 2 1 0 0.577
395 203 3 251 2 2 2 1 1 2 0.662
396 204 1 143 2 2 2 2 1 2 0.774
397 203 3 252 2 2 2 1 1 2 0.829
398 204 1 144 1 2 1 0 0 3 0.833
399 203 3 253 3 0 3 0 1 3 1.471
400 204 1 145 3 0 0 0 1 0 1.837
401 203 3 254 1 2 0 0 1 0 0.904
402 204 1 146 3 3 0 1 1 0 0.433
403 203 3 255 0 0 1 2 1 1 0.754
404 204 1 147 2 2 3 1 1 3 0.616
405 203 3 256 1 2 3 0 0 2 0.758
406 204 1 148 1 2 3 0 1 3 0.424
407 203 3 257 0 0 3 2 1 3 0.72
408 204 1 149 0 0 1 2 0 0 1.026
409 203 3 258 2 2 2 2 1 2 0.825
410 204 1 150 3 3 0 2 0 2 0.763
411 203 3 259 0 0 3 1 1 3 0.506
412 203 3 260 0 2 2 0 0 3 0.446
413 204 1 151 1 1 1 1 0 0 2.521
414 203 3 261 2 3 0 0 1 0 0.665
415 204 1 152 1 1 3 1 1 3 0.393
416 203 3 262 1 1 1 2 1 1 0.939
417 204 1 153 1 1 2 1 1 2 0.369
418 203 3 263 3 3 1 1 0 3 0.552
419 204 1 154 0 0 1 2 1 1 1.118
420 203 3 264 2 1 3 0 1 3 0.67
421 204 1 155 0 2 2 0 0 1 0.588
422 203 3 265 2 1 0 0 1 0 0.685
423 204 1 156 2 2 3 1 1 3 0.496
424 203 3 266 3 3 1 1 1 1 0.627
425 204 1 157 1 1 3 2 1 3 0.568
426 203 3 267 3 2 3 0 1 3 0.764
427 204 1 158 2 2 1 1 1 1 1.066
428 203 3 268 2 2 3 2 1 3 0.491
429 204 1 159 2 2 0 1 1 0 0.282
430 203 3 269 2 2 0 1 1 0 0.688
431 203 3 270 1 0 1 0 0 2 1.31
432 203 3 271 1 2 1 0 0 3 0.673
433 203 3 272 3 1 1 0 1 1 0.738
434 203 3 273 3 0 2 0 1 2 0.806
435 203 3 274 0 1 0 0 1 0 0.88
436 203 3 275 0 0 1 1 1 1 0.664
437 203 3 276 1 1 0 1 1 0 0.823
438 203 3 277 0 0 3 2 1 3 0.835
439 203 3 278 1 1 0 1 1 0 0.724
440 203 3 279 3 3 2 1 1 2 0.673
441 203 3 280 0 0 1 1 1 1 0.719
442 204 2 160 1 1 3 2 1 3 2.065
443 203 3 281 0 0 3 2 1 3 0.824
444 204 2 161 3 3 3 2 1 3 0.432
445 203 3 282 3 3 2 1 1 2 0.897
446 204 2 162 3 0 2 0 1 2 1.303
447 203 3 283 3 3 1 1 1 1 0.648
448 203 3 284 0 0 3 2 1 3 0.627
449 204 2 163 1 1 0 1 1 0 1.07
450 203 3 285 0 0 3 2 1 3 0.471
451 204 2 164 2 2 3 1 1 3 0.622
452 203 3 286 1 1 1 2 1 1 0.576
453 204 2 165 2 2 3 1 1 3 0.317
454 203 3 287 1 1 1 2 1 1 1.278
455 204 2 166 3 3 2 2 1 2 1.051
456 203 3 288 1 1 3 1 1 3 0.527
457 204 2 167 3 3 3 2 1 3 0.638
458 203 3 289 0 0 3 1 1 3 0.459
459 204 2 168 0 0 1 2 1 1 0.897
460 203 3 290 3 0 1 0 1 1 0.521
461 204 2 169 3 1 3 0 1 3 1.111
462 203 3 291 0 0 0 2 1 0 0.776
463 204 2 170 2 2 3 1 1 3 0.597
464 203 3 292 1 0 3 0 1 3 0.555
465 204 2 171 0 0 2 1 1 2 0.422
466 203 3 293 0 0 3 2 1 3 0.642
467 204 2 172 2 2 1 1 1 1 0.669
468 203 3 294 2 0 1 0 1 1 0.705
469 204 2 173 1 1 3 1 1 3 0.586
470 203 3 295 2 1 3 0 1 3 0.647
471 204 2 174 3 3 3 1 1 3 0.443
472 203 3 296 0 0 3 2 1 3 0.442
473 204 2 175 1 1 0 2 1 0 0.612
474 203 3 297 3 3 2 1 1 2 0.625
475 204 2 176 3 3 0 2 1 0 0.439
476 203 3 298 1 1 3 2 1 3 0.469
477 204 2 177 3 1 3 0 1 3 0.525
478 203 3 299 2 2 3 2 1 3 0.494
479 204 2 178 3 0 2 0 0 0 0.736
480 203 3 300 0 1 0 0 1 0 0.859
481 204 2 179 3 1 1 0 0 0 1.327
482 203 3 301 0 0 3 2 1 3 0.527
483 204 2 180 0 0 2 2 1 2 0.477
484 203 3 302 2 2 1 1 1 1 0.675
485 204 2 181 2 2 3 2 0 1 1.318
486 203 3 303 0 0 2 1 1 2 0.649
487 204 2 182 3 3 0 1 1 0 0.816
488 203 3 304 1 1 0 1 1 0 0.609
489 204 2 183 3 3 3 1 1 3 0.393
490 203 3 305 0 1 1 0 1 1 0.73
491 203 3 306 1 0 3 0 1 3 0.623
492 204 2 184 2 3 2 0 1 2 1.233
493 203 3 307 1 1 2 2 1 2 0.706
494 204 2 185 0 0 1 2 1 1 1.215
495 203 3 308 1 2 1 0 1 1 0.552
496 204 2 186 3 3 3 1 1 3 1.034
497 203 3 309 3 3 1 2 1 1 0.502
498 204 2 187 0 0 3 2 1 3 1.214
499 203 3 310 3 3 2 1 1 2 0.547
500 204 2 188 1 1 3 2 1 3 0.572
501 203 3 311 1 1 2 2 1 2 0.737
502 204 2 189 0 0 3 2 1 3 0.465
503 203 3 312 2 2 3 2 1 3 0.593
504 204 2 190 2 2 3 1 1 3 0.439
505 203 3 313 3 3 3 1 1 3 0.443
506 204 2 191 2 3 1 0 1 1 0.877
507 203 3 314 1 1 3 1 1 3 0.666
508 204 2 192 3 3 1 1 1 1 0.34
509 203 3 315 0 0 1 2 1 1 0.7
510 204 2 193 2 2 2 2 0 1 0.913
511 203 3 316 3 3 3 1 1 3 0.666
512 204 2 194 2 0 1 0 0 2 0.89
513 203 3 317 2 2 3 1 1 3 0.536
514 204 2 195 0 0 2 2 0 0 1.336
515 203 3 318 0 0 1 2 1 1 0.799
516 204 2 196 0 0 0 2 1 0 0.421
517 203 3 319 3 3 0 2 1 0 0.789
518 204 2 197 1 1 2 1 1 2 1.916
519 203 4 320 3 3 3 1 1 3 0.47
520 204 2 198 3 3 3 1 1 3 0.621
521 203 4 321 0 0 0 2 1 0 0.767
522 204 2 199 3 3 2 1 0 3 0.749
523 203 4 322 2 0 1 0 1 1 0.466
524 203 4 323 2 0 1 0 1 1 0.904
525 204 2 200 0 2 3 0 0 1 1.083
526 203 4 324 2 2 3 1 1 3 0.486
527 204 2 201 0 0 3 2 0 0 0.706
528 203 4 325 3 3 3 1 1 3 0.395
529 204 2 202 2 1 0 0 0 1 0.931
530 203 4 326 0 0 0 2 1 0 0.68
531 204 2 203 1 1 0 2 1 0 0.783
532 204 2 204 1 1 3 2 0 2 0.492
533 203 4 327 2 0 1 0 0 0 1.59
534 204 2 205 0 0 1 2 0 3 0.376
535 203 4 328 1 2 1 0 0 2 0.623
536 204 2 206 1 2 2 0 0 0 0.644
537 203 4 329 0 0 3 1 1 3 0.464
538 204 2 207 1 2 3 0 1 3 0.711
539 203 4 330 2 2 2 1 1 2 0.55
540 204 2 208 3 3 2 2 0 0 0.647
541 203 4 331 3 1 0 0 0 1 1.073
542 204 2 209 3 1 3 0 0 0 0.442
543 203 4 332 0 0 0 1 1 0 0.485
544 204 2 210 1 2 3 0 1 3 0.515
545 203 4 333 3 2 2 0 1 2 0.522
546 204 2 211 1 1 2 2 1 2 0.554
547 204 2 212 0 0 2 1 1 2 0.429
548 203 4 334 3 3 0 1 1 0 0.726
549 204 2 213 1 1 3 2 1 3 0.487
550 203 4 335 0 0 0 1 1 0 0.571
551 204 2 214 2 2 1 2 0 3 0.767
552 203 4 336 3 1 3 0 1 3 0.549
553 204 2 215 0 0 3 2 1 3 0.497
554 203 4 337 1 2 3 0 1 3 0.48
555 204 2 216 2 2 1 1 0 3 0.662
556 203 4 338 1 2 0 0 0 2 0.685
557 204 2 217 1 1 1 2 1 1 1.035
558 203 4 339 2 2 0 2 1 0 0.81
559 203 4 340 0 0 3 2 1 3 0.432
560 204 2 218 1 1 0 1 1 0 0.508
561 204 2 219 2 0 3 0 0 0 0.448
562 203 4 341 0 0 0 2 1 0 0.738
563 203 4 342 1 1 2 1 1 2 0.615
564 204 2 220 3 1 1 0 1 1 0.906
565 203 4 343 3 2 1 0 1 1 0.608
566 204 2 221 1 1 3 1 1 3 1.039
567 203 4 344 3 3 2 2 1 2 0.636
568 204 2 222 3 3 2 1 1 2 2.256
569 203 4 345 0 0 2 1 1 2 0.532
570 203 4 346 2 0 3 0 1 3 0.424
571 204 2 223 3 3 0 2 1 0 1.241
572 203 4 347 2 2 1 1 1 1 0.687
573 204 2 224 0 1 0 0 0 1 1.042
574 203 4 348 0 1 0 0 1 0 0.772
575 204 2 225 1 0 3 0 0 0 0.455
576 204 2 226 2 2 2 1 1 2 0.656
577 203 4 349 1 1 2 1 1 2 2.095
578 204 2 227 0 0 0 2 0 2 0.69
579 203 4 350 0 0 0 1 1 0 0.611
580 204 2 228 1 1 0 1 1 0 0.451
581 203 4 351 0 1 0 0 1 0 0.915
582 204 2 229 1 1 0 2 1 0 1.181
583 203 4 352 0 0 0 2 1 0 0.621
584 204 2 230 3 3 0 1 1 0 0.377
585 203 4 353 2 1 0 0 0 2 0.877
586 204 2 231 3 3 1 2 1 1 0.885
587 203 4 354 3 3 1 2 1 1 0.723
588 204 2 232 0 2 2 0 0 1 0.475
589 203 4 355 1 1 3 1 1 3 0.439
590 204 2 233 3 3 0 2 1 0 0.519
591 203 4 356 0 2 2 0 1 2 0.718
592 204 2 234 2 2 1 2 0 0 0.366
593 203 4 357 1 1 3 1 1 3 0.419
594 204 2 235 2 1 0 0 1 0 0.395
595 203 4 358 2 2 1 1 1 1 0.746
596 204 2 236 3 3 0 2 1 0 0.678
597 203 4 359 0 0 2 2 1 2 0.874
598 204 2 237 3 3 1 2 1 1 1.112
599 204 2 238 3 2 1 0 0 0 0.566
600 203 4 360 3 0 2 0 1 2 1.138
601 204 2 239 0 0 2 1 1 2 0.651
602 203 4 361 3 3 2 1 1 2 0.888
603 203 4 362 2 2 3 2 1 3 0.658
604 203 4 363 1 1 1 2 1 1 0.66
605 203 4 364 0 0 2 1 1 2 0.572
606 203 4 365 1 1 2 1 1 2 0.686
607 203 4 366 0 0 1 2 1 1 0.631
608 203 4 367 2 2 3 1 1 3 0.56
609 203 4 368 2 3 3 0 1 3 0.69
610 204 3 240 0 1 2 0 1 2 1.587
611 203 4 369 3 0 1 0 1 1 1.472
612 204 3 241 0 1 0 0 1 0 0.624
613 203 4 370 1 2 0 0 1 0 0.666
614 204 3 242 0 2 1 0 0 0 0.544
615 203 4 371 0 0 0 2 1 0 0.572
616 204 3 243 1 1 1 1 1 1 1.03
617 203 4 372 2 1 1 0 1 1 1.087
618 204 3 244 1 2 2 0 0 0 0.84
619 203 4 373 2 2 3 2 1 3 0.937
620 204 3 245 1 1 2 1 1 2 0.387
621 203 4 374 0 1 2 0 1 2 0.67
622 204 3 246 2 2 2 1 0 3 0.443
623 203 4 375 2 2 0 1 1 0 0.78
624 204 3 247 3 3 1 2 1 1 0.745
625 204 3 248 0 2 1 0 1 1 0.404
626 203 4 376 1 1 2 2 1 2 0.987
627 204 3 249 0 0 0 1 1 0 0.364
628 203 4 377 3 3 0 2 1 0 0.834
629 204 3 250 1 1 0 1 1 0 0.597
630 203 4 378 3 3 1 2 1 1 0.59
631 204 3 251 1 0 3 0 1 3 0.902
632 203 4 379 1 1 0 2 1 0 0.683
633 204 3 252 3 0 3 0 0 0 0.827
634 203 4 380 3 3 1 2 1 1 0.772
635 203 4 381 3 3 2 1 1 2 0.615
636 204 3 253 2 1 0 0 1 0 1.288
637 203 4 382 0 0 1 2 1 1 0.622
638 204 3 254 3 3 1 1 1 1 1.839
639 203 4 383 1 1 2 1 1 2 0.79
640 204 3 255 0 2 0 0 0 1 0.675
641 203 4 384 3 3 1 1 1 1 0.664
642 204 3 256 1 1 0 1 1 0 1.333
643 203 4 385 2 2 0 1 1 0 0.719
644 204 3 257 0 0 1 1 0 2 0.556
645 203 4 386 3 3 0 2 1 0 0.592
646 204 3 258 3 3 2 1 1 2 0.577
647 203 4 387 0 0 2 1 1 2 0.601
648 204 3 259 1 1 2 1 1 2 0.547
649 203 4 388 1 1 3 2 1 3 0.462
650 204 3 260 3 3 1 1 1 1 0.933
651 203 4 389 1 1 0 2 1 0 0.816
652 204 3 261 3 3 3 2 1 3 0.509
653 203 4 390 0 1 0 0 1 0 0.425
654 204 3 262 2 2 1 1 0 0 0.497
655 203 4 391 1 1 2 1 1 2 0.424
656 204 3 263 2 2 2 1 1 2 0.553
657 203 4 392 2 2 1 2 0 0 2.659
658 204 3 264 0 0 1 1 1 1 0.684
659 203 4 393 3 0 1 0 1 1 0.663
660 204 3 265 2 2 0 1 1 0 0.601
661 203 4 394 1 2 1 0 1 1 0.573
662 204 3 266 0 1 0 0 0 2 0.585
663 204 3 267 3 1 2 0 1 2 0.51
664 203 4 395 2 0 3 0 0 0 1.111
665 204 3 268 2 1 3 0 1 3 0.562
666 203 4 396 3 3 2 1 1 2 0.913
667 204 3 269 0 0 0 1 1 0 0.452
668 203 4 397 1 1 3 1 1 3 0.76
669 204 3 270 3 3 2 1 1 2 0.442
670 203 4 398 3 3 0 1 1 0 0.651
671 204 3 271 0 0 2 2 1 2 0.58
672 203 4 399 3 3 3 1 1 3 0.658
673 204 3 272 2 3 2 0 1 2 0.565
674 203 5 400 3 3 2 2 0 3 0.899
675 204 3 273 1 2 3 0 0 0 0.807
676 204 3 274 1 1 3 2 1 3 0.503
677 203 5 401 2 2 1 1 1 1 0.797
678 204 3 275 0 0 0 2 1 0 0.222
679 203 5 402 2 2 3 2 1 3 0.955
680 204 3 276 2 3 0 0 0 2 0.733
681 203 5 403 3 2 0 0 1 0 0.744
682 204 3 277 3 1 1 0 0 0 0.652
683 203 5 404 2 2 2 1 1 2 0.612
684 204 3 278 1 0 1 0 0 0 0.462
685 203 5 405 1 1 3 2 0 1 0.76
686 204 3 279 2 2 0 1 1 0 0.951
687 203 5 406 2 2 1 1 1 1 0.527
688 204 3 280 1 1 2 2 1 2 0.591
689 203 5 407 1 1 0 2 1 0 0.646
690 204 3 281 2 2 0 2 0 3 0.5
691 203 5 408 0 0 1 1 1 1 0.502
692 204 3 282 1 2 0 0 1 0 0.299
693 204 3 283 1 1 0 1 0 2 0.214
694 203 5 409 0 0 1 2 1 1 0.727
695 204 3 284 1 2 1 0 0 0 0.745
696 203 5 410 2 2 1 1 1 1 0.851
697 204 3 285 1 2 1 0 0 2 0.776
698 203 5 411 0 0 0 2 1 0 0.631
699 204 3 286 2 2 2 2 1 2 0.49
700 203 5 412 0 0 2 2 1 2 0.555
701 203 5 413 1 2 3 0 1 3 0.598
702 204 3 287 0 1 0 0 1 0 1.167
703 203 5 414 1 1 0 1 1 0 0.567
704 204 3 288 1 0 0 0 1 0 0.31
705 203 5 415 2 1 3 0 0 1 0.873
706 204 3 289 3 3 0 2 1 0 0.501
707 203 5 416 3 3 3 2 1 3 0.56
708 204 3 290 0 0 3 1 1 3 0.617
709 203 5 417 2 3 1 0 1 1 0.73
710 204 3 291 3 0 0 0 1 0 0.281
711 203 5 418 1 0 2 0 1 2 0.663
712 204 3 292 0 0 1 2 1 1 1.13
713 203 5 419 3 3 0 1 1 0 0.622
714 204 3 293 0 1 0 0 1 0 0.407
715 203 5 420 2 0 3 0 1 3 0.607
716 204 3 294 1 1 2 2 1 2 0.69
717 203 5 421 1 1 2 1 1 2 0.52
718 204 3 295 1 1 1 2 1 1 1.14
719 203 5 422 1 1 3 1 1 3 0.443
720 204 3 296 2 1 1 0 1 1 0.64
721 203 5 423 3 0 1 0 1 1 0.594
722 204 3 297 3 2 2 0 0 0 1.024
723 203 5 424 0 0 2 2 1 2 1.151
724 204 3 298 3 3 1 1 1 1 0.724
725 203 5 425 1 1 0 2 1 0 1.2
726 204 3 299 1 1 3 2 0 0 0.596
727 203 5 426 2 3 2 0 1 2 0.764
728 204 3 300 3 3 1 2 1 1 0.604
729 204 3 301 0 2 1 0 1 1 0.54
730 203 5 427 0 1 0 0 1 0 0.815
731 204 3 302 0 0 3 2 1 3 0.611
732 203 5 428 2 0 0 0 1 0 0.593
733 203 5 429 1 1 3 2 1 3 0.614
734 204 3 303 0 2 2 0 1 2 1.492
735 203 5 430 0 1 0 0 1 0 1.302
736 204 3 304 0 1 1 0 1 1 0.516
737 204 3 305 0 0 3 2 1 3 0.507
738 203 5 431 0 1 3 0 1 3 0.702
739 204 3 306 0 0 1 1 1 1 0.639
740 203 5 432 2 2 0 2 0 2 1.895
741 204 3 307 0 0 0 1 1 0 0.43
742 203 5 433 0 1 0 0 1 0 0.693
743 204 3 308 2 3 0 0 1 0 0.485
744 203 5 434 2 3 2 0 1 2 0.755
745 204 3 309 3 2 2 0 1 2 0.537
746 203 5 435 1 1 3 1 1 3 0.591
747 204 3 310 3 3 2 1 1 2 0.652
748 203 5 436 2 2 3 2 1 3 0.636
749 204 3 311 3 3 3 1 1 3 1.516
750 203 5 437 1 1 1 1 1 1 0.804
751 204 3 312 1 1 0 2 1 0 0.462
752 203 5 438 1 1 1 1 0 0 0.99
753 204 3 313 3 0 0 0 1 0 0.772
754 203 5 439 3 3 0 1 1 0 0.628
755 204 3 314 1 1 0 1 1 0 0.59
756 203 5 440 0 0 3 2 1 3 0.72
757 204 3 315 1 1 3 1 1 3 0.431
758 203 5 441 3 3 0 2 1 0 1.209
759 204 3 316 3 3 1 1 1 1 1.063
760 203 5 442 3 2 2 0 1 2 0.556
761 204 3 317 3 0 0 0 1 0 0.438
762 203 5 443 0 1 0 0 0 2 0.949
763 204 3 318 0 0 1 2 1 1 1.06
764 203 5 444 1 2 2 0 1 2 0.566
765 204 3 319 1 2 0 0 1 0 0.644
766 203 5 445 0 0 1 2 1 1 0.564
767 203 5 446 2 0 1 0 0 2 0.559
768 203 5 447 1 1 3 2 1 3 0.473
769 203 5 448 0 0 0 1 1 0 0.678
770 203 5 449 2 0 2 0 1 2 0.613
771 203 5 450 3 3 2 1 1 2 0.63
772 203 5 451 0 0 0 2 1 0 0.546
773 203 5 452 2 2 0 2 0 2 1.353
774 203 5 453 2 2 2 1 1 2 0.37
775 203 5 454 2 2 0 1 1 0 0.588
776 203 5 455 1 1 1 1 1 1 0.469
777 203 5 456 0 0 3 2 1 3 0.415
778 203 5 457 2 2 2 2 1 2 0.883
779 203 5 458 1 1 1 1 1 1 0.802
780 203 5 459 1 1 1 2 1 1 0.623
781 203 5 460 0 0 3 1 1 3 0.552
782 203 5 461 3 1 1 0 0 2 0.657
783 203 5 462 2 2 3 2 1 3 0.4
784 204 4 320 1 1 0 1 1 0 0.386
785 203 5 463 0 0 1 1 1 1 0.592
786 204 4 321 2 2 0 2 1 0 0.558
787 203 5 464 0 0 1 2 1 1 0.477
788 204 4 322 3 3 3 1 1 3 0.448
789 203 5 465 1 1 2 2 1 2 0.911
790 204 4 323 2 2 0 1 1 0 0.406
791 204 4 324 1 2 1 0 0 0 0.398
792 203 5 466 3 3 0 2 1 0 1.024
793 204 4 325 3 3 1 1 1 1 0.858
794 203 5 467 2 2 0 2 1 0 0.454
795 204 4 326 3 1 3 0 0 0 0.401
796 203 5 468 3 3 3 2 1 3 0.4
797 203 5 469 2 2 0 2 1 0 0.876
798 204 4 327 2 1 2 0 0 0 1.693
799 203 5 470 3 2 2 0 1 2 0.627
800 204 4 328 0 0 3 1 1 3 0.425
801 203 5 471 1 1 0 2 1 0 0.847
802 204 4 329 1 0 0 0 1 0 0.434
803 203 5 472 0 0 2 1 1 2 0.567
804 204 4 330 2 2 1 2 0 0 0.508
805 204 4 331 0 0 3 2 1 3 0.391
806 203 5 473 2 0 3 0 1 3 0.841
807 203 5 474 1 0 2 0 1 2 0.442
808 204 4 332 0 0 1 1 1 1 0.655
809 204 4 333 2 2 1 2 0 0 0.465
810 203 5 475 2 0 1 0 1 1 0.865
811 204 4 334 2 2 0 2 1 0 0.302
812 203 5 476 2 2 0 2 1 0 0.708
813 204 4 335 2 2 0 2 1 0 0.301
814 203 5 477 1 1 0 2 1 0 0.581
815 204 4 336 3 3 3 1 1 3 0.424
816 203 5 478 1 1 1 1 1 1 0.751
817 204 4 337 2 2 0 2 1 0 0.467
818 203 5 479 1 1 3 1 1 3 0.459
819 204 4 338 0 0 0 2 1 0 0.268
820 204 4 339 0 0 0 2 1 0 0.204
821 204 4 340 0 0 1 1 1 1 1.035
822 204 4 341 3 3 3 2 1 3 0.431
823 204 4 342 1 2 2 0 0 0 0.342
824 204 4 343 1 2 2 0 1 2 0.676
825 204 4 344 2 3 3 0 1 3 0.338
826 204 4 345 3 3 3 2 1 3 0.271
827 204 4 346 2 2 3 1 1 3 0.411
828 204 4 347 3 2 3 0 1 3 0.291
829 204 4 348 0 1 1 0 0 0 0.67
830 204 4 349 2 2 3 1 1 3 0.416
831 204 4 350 3 2 0 0 1 0 0.599
832 204 4 351 3 3 2 2 1 2 0.684
833 204 4 352 1 2 2 0 1 2 0.505
834 204 4 353 1 1 2 1 0 0 0.573
835 204 4 354 1 1 1 1 0 0 0.674
836 204 4 355 3 3 3 1 1 3 0.291
837 204 4 356 3 3 0 2 1 0 0.483
838 204 4 357 3 3 2 2 1 2 0.427
839 204 4 358 1 0 2 0 0 0 0.37
840 204 4 359 0 1 2 0 1 2 0.478
841 204 4 360 1 1 1 1 1 1 0.612
842 204 4 361 3 0 2 0 1 2 0.5
843 204 4 362 3 0 2 0 1 2 0.472
844 204 4 363 0 0 3 1 1 3 0.445
845 204 4 364 1 2 1 0 1 1 1.427
846 204 4 365 3 3 1 2 1 1 0.537
847 204 4 366 1 2 1 0 1 1 0.396
848 204 4 367 1 1 3 2 0 0 0.661
849 204 4 368 2 2 3 1 1 3 0.439
850 204 4 369 2 2 1 2 1 1 0.769
851 204 4 370 2 3 1 0 1 1 0.635
852 204 4 371 0 0 3 1 1 3 0.457
853 204 4 372 1 1 3 1 1 3 0.559
854 204 4 373 1 1 3 1 1 3 0.385
855 204 4 374 1 2 0 0 1 0 0.746
856 204 4 375 1 1 1 1 1 1 0.997
857 204 4 376 0 0 1 2 1 1 0.46
858 204 4 377 1 2 2 0 1 2 0.481
859 204 4 378 3 3 3 1 1 3 0.374
860 204 4 379 1 1 1 2 0 0 0.745
861 204 4 380 0 0 3 2 1 3 0.428
862 204 4 381 1 2 1 0 0 0 0.499
863 204 4 382 1 1 2 2 0 0 0.606
864 204 4 383 3 3 1 2 1 1 0.614
865 204 4 384 2 2 0 2 1 0 0.473
866 204 4 385 2 2 2 2 1 2 0.626
867 204 4 386 1 2 2 0 1 2 0.61
868 204 4 387 1 1 2 1 1 2 0.306
869 204 4 388 3 3 0 2 0 3 0.433
870 204 4 389 2 2 0 1 1 0 0.315
871 204 4 390 0 0 0 2 1 0 0.394
872 204 4 391 2 2 0 2 1 0 0.293
873 204 4 392 3 0 3 0 0 0 0.401
874 204 4 393 1 0 0 0 1 0 0.268
875 204 4 394 2 2 1 2 1 1 0.876
876 204 4 395 1 1 1 1 1 1 0.387
877 204 4 396 2 2 2 2 1 2 0.638
878 204 4 397 2 2 3 1 1 3 0.493
879 204 4 398 0 1 1 0 1 1 0.866
880 204 4 399 1 0 1 0 1 1 0.601
881 204 5 400 3 3 0 2 1 0 0.447
882 204 5 401 2 2 0 2 1 0 0.265
883 204 5 402 1 2 0 0 1 0 0.31
884 204 5 403 1 1 0 2 1 0 0.228
885 204 5 404 1 1 3 1 1 3 0.418
886 204 5 405 2 1 3 0 1 3 0.234
887 204 5 406 2 2 2 1 1 2 0.6
888 204 5 407 2 2 0 1 1 0 0.425
889 204 5 408 0 0 1 1 1 1 0.704
890 204 5 409 0 0 1 2 1 1 0.512
891 204 5 410 1 1 2 1 0 0 0.484
892 204 5 411 0 0 3 1 1 3 0.397
893 204 5 412 2 2 3 1 1 3 0.4
894 204 5 413 2 2 3 2 1 3 0.188
895 204 5 414 0 0 1 1 1 1 0.571
896 204 5 415 2 2 2 1 1 2 0.652
897 204 5 416 3 3 0 1 1 0 0.427
898 204 5 417 0 0 2 2 1 2 0.582
899 204 5 418 3 3 0 1 1 0 0.407
900 204 5 419 0 0 1 1 1 1 0.639
901 204 5 420 1 1 0 2 1 0 0.449
902 204 5 421 0 0 1 2 1 1 0.507
903 204 5 422 3 3 3 1 0 0 0.575
904 204 5 423 3 2 3 0 1 3 0.564
905 204 5 424 3 3 2 1 1 2 0.694
906 204 5 425 3 3 3 2 1 3 0.343
907 204 5 426 2 2 3 1 1 3 0.384
908 204 5 427 2 2 3 2 1 3 0.301
909 204 5 428 2 2 2 2 1 2 0.508
910 204 5 429 2 1 3 0 0 2 1.072
911 204 5 430 3 3 3 1 0 0 0.787
912 204 5 431 3 3 0 1 1 0 0.032
913 204 5 432 2 2 1 2 1 1 1.257
914 204 5 433 2 1 1 0 1 1 0.562
915 204 5 434 1 1 2 2 0 1 0.6
916 204 5 435 3 3 3 2 1 3 0.512
917 204 5 436 2 2 0 2 0 2 1.447
918 204 5 437 3 3 0 2 1 0 0.273
919 204 5 438 2 0 0 0 1 0 0.269
920 204 5 439 2 3 3 0 1 3 0.506
921 204 5 440 2 2 1 1 1 1 0.686
922 204 5 441 1 1 0 2 1 0 0.479
923 204 5 442 3 2 3 0 0 0 0.548
924 204 5 443 1 1 1 1 1 1 0.426
925 204 5 444 1 1 3 1 1 3 0.448
926 204 5 445 2 2 2 1 0 0 0.326
927 204 5 446 1 1 2 2 1 2 0.696
928 204 5 447 1 2 0 0 1 0 0.293
929 204 5 448 3 3 2 2 1 2 0.436
930 204 5 449 0 0 0 1 1 0 0.33
931 204 5 450 2 2 3 1 1 3 0.501
932 204 5 451 0 0 0 2 1 0 0.189
933 204 5 452 2 0 3 0 1 3 0.588
934 204 5 453 0 1 3 0 0 0 0.557
935 204 5 454 2 2 0 1 1 0 0.339
936 204 5 455 3 3 3 1 1 3 0.348
937 204 5 456 3 2 1 0 1 1 2.037
938 204 5 457 0 0 2 2 1 2 0.759
939 204 5 458 2 2 1 1 1 1 0.722
940 204 5 459 2 2 0 1 1 0 0.478
941 204 5 460 0 0 2 2 1 2 0.774
942 204 5 461 1 0 2 0 0 1 0.4
943 204 5 462 2 3 1 0 0 0 0.395
944 204 5 463 0 0 1 1 1 1 0.679
945 204 5 464 2 2 0 1 0 1 0.309
946 204 5 465 3 3 2 2 1 2 0.663
947 204 5 466 0 0 1 1 1 1 0.566
948 204 5 467 2 3 0 0 0 1 1.255
949 204 5 468 1 1 2 2 1 2 0.904
950 204 5 469 0 0 3 1 1 3 0.526
951 204 5 470 3 3 1 2 0 0 0.516
952 204 5 471 2 3 0 0 1 0 0.284
953 204 5 472 3 3 1 2 1 1 0.572
954 204 5 473 0 0 2 2 1 2 0.513
955 204 5 474 0 0 2 2 1 2 0.28
956 204 5 475 0 0 3 1 1 3 0.483
957 204 5 476 2 2 3 2 0 0 1.18
958 204 5 477 0 2 3 0 1 3 0.492
959 204 5 478 2 3 2 0 1 2 0.864
960 204 5 479 2 2 2 1 1 2 0.424
961 205 0 0 3 3 3 1 1 3 1.535
962 205 0 1 3 1 0 0 0 1 2.451
963 205 0 2 3 3 1 1 1 1 2.953
964 205 0 3 0 1 0 0 1 0 0.889
965 205 0 4 1 2 0 0 1 0 0.724
966 205 0 5 3 3 1 1 1 1 1.06
967 205 0 6 3 1 3 0 0 1 15.401
968 205 0 7 0 0 0 1 1 0 0.943
969 205 0 8 3 3 2 1 1 2 4.792
970 205 0 9 2 2 1 1 1 1 3.127
971 205 0 10 2 2 0 1 1 0 0.897
972 205 0 11 1 1 2 2 1 2 2.063
973 205 0 12 2 1 2 0 1 2 0.927
974 205 0 13 0 1 1 0 1 1 0.92
975 205 0 14 2 2 0 1 1 0 0.849
976 205 0 15 3 3 3 1 1 3 0.813
977 205 0 16 1 2 2 0 0 1 3.13
978 205 0 17 1 1 3 2 1 3 14.332
979 205 0 18 2 2 2 1 1 2 0.836
980 205 0 19 2 1 1 0 1 1 0.928
981 205 0 20 1 0 3 0 1 3 0.809
982 205 0 21 1 2 1 0 1 1 1.142
983 205 0 22 1 1 2 1 1 2 0.759
984 205 0 23 1 1 1 2 1 1 0.858
985 205 0 24 1 1 2 1 1 2 0.764
986 205 0 25 0 0 0 2 1 0 4.654
987 205 0 26 1 1 0 1 1 0 0.882
988 205 0 27 3 3 2 1 0 3 6.525
989 205 0 28 0 2 3 0 0 2 1.712
990 205 0 29 3 3 1 1 1 1 2.673
991 205 0 30 1 0 1 0 0 0 1.068
992 205 0 31 2 2 3 2 0 2 2.791
993 205 0 32 2 2 2 1 1 2 1.089
994 205 0 33 1 1 2 2 0 1 2.103
995 205 0 34 3 3 1 1 1 1 0.826
996 205 0 35 3 3 2 1 1 2 1.111
997 205 0 36 0 0 0 1 1 0 1.241
998 205 0 37 2 2 0 2 0 1 17.82
999 205 0 38 2 0 0 0 1 0 3.051
1000 205 0 39 0 1 2 0 1 2 0.952
1001 205 0 40 0 2 0 0 1 0 0.96
1002 205 0 41 0 0 2 2 1 2 0.795
1003 205 0 42 1 1 1 2 1 1 1.021
1004 205 0 43 0 0 3 1 1 3 0.802
1005 205 0 44 0 0 3 2 1 3 0.803
1006 205 0 45 3 3 2 1 1 2 0.881
1007 205 0 46 3 2 3 0 1 3 3.435
1008 205 0 47 2 2 2 2 1 2 3.63
1009 205 0 48 1 1 2 2 0 1 9.529
1010 205 0 49 2 2 3 1 0 2 0.867
1011 205 0 50 2 2 2 1 1 2 1.009
1012 205 0 51 1 2 1 0 1 1 0.807
1013 205 0 52 0 0 3 2 0 0 1.928
1014 205 0 53 1 1 2 2 1 2 0.756
1015 205 0 54 2 2 0 2 1 0 1.094
1016 205 0 55 2 2 3 2 0 0 1.597
1017 205 0 56 0 0 1 1 1 1 1.506
1018 205 0 57 2 2 3 2 1 3 0.954
1019 205 0 58 1 1 1 1 0 2 1.538
1020 205 0 59 1 1 3 1 1 3 0.664
1021 205 0 60 0 0 1 1 1 1 1.115
1022 205 0 61 2 2 0 2 1 0 0.993
1023 205 0 62 0 2 2 0 0 0 0.872
1024 205 0 63 0 0 0 1 1 0 1.303
1025 205 0 64 1 1 2 1 0 1 1.154
1026 205 0 65 0 2 2 0 1 2 0.907
1027 205 0 66 0 0 3 1 1 3 1.125
1028 205 0 67 2 2 2 1 1 2 0.823
1029 205 0 68 2 1 1 0 1 1 0.884
1030 205 0 69 0 0 2 1 1 2 0.766
1031 205 0 70 3 3 0 2 0 2 0.96
1032 205 0 71 2 2 1 2 0 2 1.008
1033 205 0 72 1 1 2 1 0 1 1.305
1034 205 0 73 2 2 1 2 0 0 1.884
1035 205 0 74 3 3 2 2 0 1 2.346
1036 205 0 75 0 2 3 0 0 0 0.884
1037 205 0 76 3 3 2 1 1 2 0.93
1038 205 0 77 3 3 3 2 1 3 1.791
1039 205 0 78 3 3 2 1 1 2 0.489
1040 205 0 79 1 0 1 0 0 0 1.666
1041 205 1 80 0 0 1 1 1 1 0.947
1042 205 1 81 2 0 2 0 0 1 2.012
1043 205 1 82 2 2 3 1 0 0 0.69
1044 205 1 83 1 0 0 0 0 1 3.206
1045 205 1 84 0 1 3 0 1 3 1.122
1046 205 1 85 0 0 2 1 0 1 7.347
1047 205 1 86 3 3 3 1 1 3 0.907
1048 205 1 87 3 2 1 0 1 1 1.077
1049 205 1 88 1 1 0 2 1 0 0.908
1050 205 1 89 1 1 3 2 0 1 2.841
1051 205 1 90 0 1 0 0 0 1 1.233
1052 205 1 91 3 3 0 2 0 3 1.031
1053 205 1 92 2 1 2 0 0 1 2.288
1054 205 1 93 2 2 3 1 0 2 3.308
1055 205 1 94 3 3 3 2 1 3 0.935
1056 205 1 95 2 2 1 2 1 1 2.611
1057 205 1 96 0 0 0 1 1 0 0.879
1058 205 1 97 0 0 2 1 1 2 0.891
1059 205 1 98 3 2 2 0 1 2 0.725
1060 205 1 99 0 2 3 0 1 3 1.157
1061 205 1 100 0 2 3 0 1 3 0.549
1062 205 1 101 2 2 1 2 1 1 1.055
1063 205 1 102 1 1 0 1 0 1 4.803
1064 205 1 103 3 3 2 2 1 2 0.873
1065 205 1 104 3 3 1 1 1 1 0.804
1066 205 1 105 1 1 2 2 1 2 0.805
1067 205 1 106 3 1 0 0 1 0 0.85
1068 205 1 107 2 2 3 2 1 3 1.057
1069 205 1 108 0 0 3 2 1 3 0.777
1070 205 1 109 2 2 2 2 1 2 0.811
1071 205 1 110 2 2 1 2 0 3 2.108
1072 205 1 111 1 1 2 2 0 1 0.834
1073 205 1 112 3 3 0 1 1 0 0.898
1074 205 1 113 0 0 0 2 0 2 1.504
1075 206 0 0 3 3 1 2 1 1 1.594
1076 206 0 1 0 0 1 1 1 1 0.419
1077 205 1 114 0 0 2 2 1 2 0.859
1078 206 0 2 0 0 2 1 1 2 0.41
1079 205 1 115 3 3 3 2 1 3 1.01
1080 206 0 3 1 1 1 1 1 1 0.421
1081 205 1 116 1 1 1 2 1 1 1.084
1082 206 0 4 2 0 1 0 1 1 0.519
1083 205 1 117 0 0 0 2 1 0 0.45
1084 206 0 5 1 0 1 0 0 0 1.174
1085 205 1 118 3 0 0 0 1 0 0.748
1086 206 0 6 0 1 2 0 1 2 0.441
1087 205 1 119 1 2 2 0 0 1 0.908
1088 206 0 7 3 3 3 2 1 3 0.463
1089 205 1 120 1 1 0 2 0 2 1.037
1090 206 0 8 0 0 0 1 1 0 0.688
1091 205 1 121 1 1 0 1 0 1 0.726
1092 206 0 9 2 0 2 0 1 2 0.729
1093 205 1 122 3 2 0 0 1 0 0.841
1094 206 0 10 2 2 3 2 1 3 0.892
1095 205 1 123 2 2 2 1 1 2 0.838
1096 206 0 11 2 1 1 0 1 1 0.438
1097 205 1 124 1 1 0 2 0 1 0.744
1098 206 0 12 1 1 1 2 1 1 0.411
1099 206 0 13 0 0 0 2 1 0 0.402
1100 205 1 125 1 0 1 0 1 1 0.907
1101 206 0 14 2 2 3 1 1 3 0.541
1102 205 1 126 3 3 1 2 0 3 1.225
1103 206 0 15 0 0 2 1 1 2 0.563
1104 205 1 127 2 2 1 1 1 1 0.907
1105 206 0 16 0 0 3 1 1 3 0.944
1106 205 1 128 2 1 2 0 0 0 1.429
1107 206 0 17 1 1 1 2 1 1 0.419
1108 205 1 129 2 2 0 2 0 1 0.947
1109 206 0 18 1 1 1 2 0 0 1.673
1110 205 1 130 2 0 2 0 1 2 0.814
1111 206 0 19 2 0 2 0 1 2 0.411
1112 205 1 131 0 1 3 0 1 3 1.323
1113 206 0 20 0 0 0 2 1 0 1.265
1114 205 1 132 3 3 3 2 0 2 0.809
1115 206 0 21 0 1 1 0 1 1 0.472
1116 205 1 133 0 0 1 1 1 1 1.066
1117 206 0 22 0 1 2 0 1 2 0.345
1118 205 1 134 0 0 0 1 1 0 0.991
1119 206 0 23 3 3 2 2 0 3 1.81
1120 205 1 135 0 0 0 1 1 0 0.758
1121 206 0 24 1 1 0 1 1 0 0.726
1122 205 1 136 0 2 3 0 1 3 0.821
1123 206 0 25 3 3 1 2 1 1 0.49
1124 205 1 137 0 1 2 0 1 2 0.865
1125 206 0 26 3 2 1 0 1 1 0.578
1126 205 1 138 0 0 2 1 1 2 0.877
1127 206 0 27 1 1 0 1 1 0 0.911
1128 205 1 139 3 3 2 2 1 2 0.46
1129 206 0 28 2 2 1 2 1 1 0.452
1130 205 1 140 1 1 0 2 0 1 1.689
1131 206 0 29 2 0 1 0 1 1 0.349
1132 206 0 30 2 2 2 1 1 2 0.371
1133 205 1 141 1 1 1 1 1 1 0.586
1134 206 0 31 0 0 2 1 1 2 0.647
1135 205 1 142 3 3 0 1 1 0 1.023
1136 206 0 32 1 1 1 2 1 1 0.341
1137 205 1 143 2 2 1 1 1 1 0.901
1138 206 0 33 3 3 1 1 1 1 0.451
1139 205 1 144 2 1 1 0 0 2 1.007
1140 206 0 34 1 0 1 0 1 1 0.34
1141 205 1 145 2 2 0 2 0 1 0.78
1142 206 0 35 3 2 0 0 1 0 1.345
1143 205 1 146 3 3 2 2 0 3 0.514
1144 206 0 36 3 3 3 1 1 3 0.386
1145 205 1 147 1 1 0 2 1 0 1.057
1146 206 0 37 0 0 2 2 1 2 0.49
1147 205 1 148 2 2 0 1 1 0 0.741
1148 206 0 38 0 0 0 1 1 0 0.642
1149 205 1 149 1 1 1 2 1 1 0.76
1150 206 0 39 0 0 0 1 1 0 0.485
1151 205 1 150 0 0 1 1 0 0 0.663
1152 206 0 40 3 1 3 0 1 3 0.486
1153 205 1 151 3 3 1 2 0 3 0.609
1154 206 0 41 0 2 0 0 1 0 1.39
1155 205 1 152 1 1 3 1 1 3 1.209
1156 206 0 42 2 3 2 0 1 2 0.454
1157 205 1 153 3 3 3 2 1 3 0.779
1158 206 0 43 3 3 0 1 1 0 0.727
1159 205 1 154 3 0 1 0 0 2 1.002
1160 206 0 44 0 0 2 1 1 2 0.343
1161 206 0 45 2 2 2 2 1 2 0.376
1162 205 1 155 2 2 0 1 1 0 0.868
1163 206 0 46 3 0 1 0 1 1 0.3
1164 205 1 156 1 2 0 0 1 0 0.495
1165 206 0 47 1 2 2 0 1 2 0.411
1166 205 1 157 1 2 0 0 1 0 0.44
1167 205 1 158 1 1 0 1 0 1 0.514
1168 206 0 48 2 1 0 0 1 0 0.87
1169 206 0 49 3 3 0 2 1 0 0.54
1170 205 1 159 3 3 0 1 1 0 0.862
1171 206 0 50 1 1 3 2 1 3 1.014
1172 206 0 51 0 1 2 0 1 2 0.459
1173 206 0 52 3 3 3 2 1 3 0.384
1174 206 0 53 3 3 0 1 1 0 0.42
1175 206 0 54 1 1 1 2 1 1 0.378
1176 206 0 55 1 1 3 2 1 3 0.377
1177 206 0 56 0 0 0 2 1 0 0.609
1178 206 0 57 1 1 2 1 1 2 0.356
1179 206 0 58 1 1 3 2 1 3 0.412
1180 206 0 59 1 1 1 2 1 1 0.691
1181 206 0 60 3 3 0 2 1 0 0.431
1182 206 0 61 2 2 3 2 0 0 1.309
1183 206 0 62 2 2 2 1 1 2 0.324
1184 206 0 63 2 2 0 2 1 0 0.485
1185 206 0 64 0 0 3 1 1 3 0.39
1186 206 0 65 1 1 3 1 1 3 0.345
1187 206 0 66 0 1 0 0 1 0 0.382
1188 206 0 67 3 3 3 2 1 3 0.334
1189 205 2 160 2 2 1 2 1 1 0.927
1190 206 0 68 3 3 2 2 1 2 0.423
1191 206 0 69 3 3 3 2 1 3 0.389
1192 205 2 161 1 1 3 1 1 3 1.096
1193 206 0 70 1 0 2 0 1 2 0.529
1194 205 2 162 0 0 1 2 1 1 0.975
1195 206 0 71 2 2 0 1 1 0 0.504
1196 205 2 163 1 0 1 0 1 1 0.743
1197 206 0 72 1 1 0 2 1 0 0.435
1198 205 2 164 2 2 1 1 1 1 0.742
1199 206 0 73 1 1 3 1 1 3 0.437
1200 205 2 165 2 2 0 1 1 0 0.966
1201 206 0 74 3 3 2 2 0 0 1.146
1202 205 2 166 0 0 1 2 1 1 0.738
1203 206 0 75 3 3 3 2 1 3 0.322
1204 205 2 167 0 0 2 1 1 2 0.817
1205 206 0 76 0 1 3 0 1 3 0.384
1206 206 0 77 0 1 1 0 1 1 0.803
1207 205 2 168 3 1 3 0 0 0 1.743
1208 206 0 78 1 2 0 0 1 0 0.432
1209 206 0 79 3 3 3 2 1 3 0.278
1210 205 2 169 2 1 2 0 0 1 2.211
1211 205 2 170 2 2 0 1 1 0 0.769
1212 205 2 171 0 0 1 1 1 1 0.752
1213 205 2 172 3 3 1 1 0 3 1.119
1214 205 2 173 0 1 1 0 1 1 8.692
1215 205 2 174 3 3 3 1 1 3 1.24
1216 205 2 175 1 1 1 2 1 1 0.953
1217 205 2 176 3 3 3 2 1 3 0.869
1218 205 2 177 2 2 2 1 0 0 1.648
1219 205 2 178 0 1 1 0 1 1 0.722
1220 205 2 179 3 3 3 2 1 3 0.582
1221 205 2 180 3 0 1 0 1 1 1.02
1222 205 2 181 2 3 2 0 0 3 0.53
1223 206 1 80 0 2 1 0 1 1 0.401
1224 206 1 81 3 0 3 0 1 3 0.34
1225 205 2 182 1 1 2 1 0 1 1.389
1226 206 1 82 0 1 3 0 1 3 0.29
1227 205 2 183 3 3 0 2 1 0 0.86
1228 206 1 83 2 2 0 2 1 0 0.308
1229 205 2 184 3 1 3 0 0 1 0.84
1230 206 1 84 3 3 2 2 1 2 0.446
1231 205 2 185 0 0 1 1 1 1 0.712
1232 206 1 85 3 3 1 1 1 1 0.36
1233 205 2 186 3 3 0 2 0 3 0.636
1234 206 1 86 1 2 3 0 1 3 0.357
1235 206 1 87 1 1 0 2 1 0 0.365
1236 205 2 187 0 0 2 1 1 2 0.867
1237 206 1 88 3 3 1 1 1 1 0.378
1238 205 2 188 1 1 0 1 1 0 1.006
1239 206 1 89 2 2 2 1 1 2 0.255
1240 205 2 189 2 2 3 2 1 3 0.775
1241 206 1 90 1 1 3 1 1 3 0.343
1242 205 2 190 2 1 0 0 1 0 0.982
1243 206 1 91 1 2 2 0 1 2 0.22
1244 205 2 191 3 2 1 0 1 1 0.957
1245 206 1 92 0 1 0 0 1 0 0.686
1246 205 2 192 3 1 1 0 0 2 0.934
1247 206 1 93 3 3 1 2 1 1 0.746
1248 206 1 94 3 3 3 2 1 3 0.316
1249 205 2 193 2 2 3 1 0 1 0.69
1250 206 1 95 0 0 0 1 1 0 0.33
1251 205 2 194 3 3 0 1 1 0 0.855
1252 206 1 96 0 0 3 2 1 3 0.332
1253 205 2 195 2 2 2 1 1 2 0.834
1254 206 1 97 2 0 3 0 1 3 0.258
1255 206 1 98 1 1 0 1 1 0 0.338
1256 205 2 196 0 0 3 2 0 1 1.746
1257 206 1 99 3 2 3 0 1 3 0.352
1258 205 2 197 2 2 2 2 1 2 1.397
1259 206 1 100 1 0 1 0 1 1 0.388
1260 205 2 198 2 1 0 0 0 1 1.294
1261 206 1 101 0 0 0 1 1 0 0.52
1262 206 1 102 3 3 3 2 1 3 0.243
1263 205 2 199 0 1 3 0 1 3 1.197
1264 206 1 103 3 3 1 2 1 1 0.383
1265 205 2 200 3 3 3 1 1 3 0.557
1266 206 1 104 0 0 0 2 1 0 0.343
1267 205 2 201 1 1 2 1 1 2 0.803
1268 206 1 105 2 2 0 2 1 0 1.448
1269 205 2 202 3 3 3 2 1 3 0.516
1270 206 1 106 1 1 3 1 1 3 0.333
1271 205 2 203 1 1 0 1 1 0 0.812
1272 206 1 107 2 2 1 1 1 1 1.019
1273 205 2 204 0 0 2 2 0 1 0.781
1274 206 1 108 2 2 0 2 1 0 0.412
1275 205 2 205 1 1 2 2 0 1 0.722
1276 206 1 109 1 1 0 1 1 0 0.343
1277 205 2 206 1 1 2 1 1 2 0.918
1278 206 1 110 3 3 2 1 1 2 0.364
1279 205 2 207 0 0 0 1 1 0 0.784
1280 206 1 111 2 3 3 0 1 3 0.776
1281 205 2 208 0 0 2 2 1 2 0.786
1282 206 1 112 2 2 0 2 1 0 0.377
1283 205 2 209 1 1 3 2 0 1 0.852
1284 206 1 113 1 2 1 0 1 1 0.35
1285 205 2 210 1 1 2 2 1 2 0.854
1286 206 1 114 2 2 0 2 1 0 0.423
1287 205 2 211 0 1 1 0 0 2 0.562
1288 206 1 115 2 2 2 1 1 2 0.353
1289 205 2 212 3 3 2 2 0 3 0.591
1290 206 1 116 3 3 0 1 1 0 0.39
1291 206 1 117 1 1 1 2 1 1 0.437
1292 205 2 213 1 1 0 2 0 2 0.908
1293 206 1 118 0 0 3 2 1 3 0.363
1294 205 2 214 0 0 3 2 0 1 2.3
1295 206 1 119 0 0 0 1 1 0 0.456
1296 205 2 215 1 1 1 1 1 1 0.488
1297 206 1 120 2 2 0 1 1 0 0.377
1298 206 1 121 0 2 3 0 1 3 0.317
1299 205 2 216 2 2 3 2 0 0 0.788
1300 206 1 122 1 2 2 0 1 2 0.331
1301 205 2 217 1 1 3 1 0 1 1.269
1302 206 1 123 2 2 0 2 1 0 0.421
1303 205 2 218 1 1 0 2 1 0 0.521
1304 206 1 124 2 2 3 2 1 3 0.331
1305 205 2 219 3 3 0 1 1 0 0.993
1306 206 1 125 3 0 3 0 1 3 0.353
1307 205 2 220 1 1 0 2 1 0 0.459
1308 206 1 126 2 2 0 1 1 0 0.406
1309 205 2 221 1 2 1 0 1 1 0.661
1310 206 1 127 2 2 1 1 1 1 0.345
1311 205 2 222 1 1 0 1 1 0 0.504
1312 206 1 128 3 2 2 0 1 2 0.309
1313 206 1 129 0 0 2 1 1 2 0.364
1314 205 2 223 1 1 2 1 0 0 1.632
1315 205 2 224 1 0 2 0 0 1 0.692
1316 206 1 130 1 1 1 1 0 3 0.921
1317 206 1 131 1 1 0 2 1 0 0.424
1318 205 2 225 1 1 2 1 1 2 1.065
1319 206 1 132 3 1 0 0 0 1 0.355
1320 205 2 226 1 1 2 1 1 2 0.86
1321 206 1 133 0 0 2 1 1 2 0.307
1322 205 2 227 1 1 2 2 1 2 1.276
1323 206 1 134 0 2 1 0 1 1 0.386
1324 206 1 135 0 0 0 1 1 0 0.398
1325 205 2 228 1 1 0 2 1 0 1.116
1326 206 1 136 1 1 2 1 1 2 0.314
1327 205 2 229 1 1 3 2 1 3 0.994
1328 206 1 137 2 2 0 1 1 0 0.64
1329 206 1 138 2 3 1 0 1 1 0.515
1330 205 2 230 0 0 2 2 1 2 3.34
1331 206 1 139 0 0 3 1 1 3 0.322
1332 205 2 231 0 0 0 2 0 1 0.675
1333 206 1 140 2 2 1 2 0 0 0.955
1334 205 2 232 3 3 3 2 1 3 0.492
1335 206 1 141 1 0 3 0 1 3 0.366
1336 205 2 233 1 1 1 2 1 1 1.176
1337 206 1 142 2 2 0 2 1 0 0.519
1338 205 2 234 0 0 2 2 0 0 0.716
1339 206 1 143 3 3 3 2 1 3 0.296
1340 205 2 235 2 0 2 0 1 2 0.752
1341 206 1 144 1 1 1 1 1 1 0.384
1342 205 2 236 1 1 0 1 1 0 0.751
1343 206 1 145 1 1 2 1 1 2 0.315
1344 206 1 146 0 2 0 0 1 0 0.37
1345 205 2 237 2 1 1 0 0 2 0.735
1346 206 1 147 2 2 1 2 1 1 0.399
1347 205 2 238 2 2 0 2 0 1 0.614
1348 206 1 148 3 0 2 0 1 2 0.282
1349 205 2 239 1 1 3 1 0 1 1.022
1350 206 1 149 0 0 1 1 1 1 0.434
1351 206 1 150 0 0 3 2 1 3 0.336
1352 206 1 151 0 0 1 1 1 1 0.437
1353 206 1 152 1 2 2 0 1 2 0.263
1354 206 1 153 1 2 1 0 1 1 0.39
1355 206 1 154 3 3 3 1 1 3 0.282
1356 206 1 155 1 1 2 1 1 2 0.354
1357 206 1 156 2 2 0 1 1 0 0.599
1358 206 1 157 1 1 0 1 1 0 0.483
1359 206 1 158 1 1 1 1 1 1 0.459
1360 206 1 159 3 0 2 0 1 2 0.353
1361 205 3 240 1 1 3 1 1 3 1.182
1362 205 3 241 3 0 2 0 1 2 0.67
1363 205 3 242 1 0 3 0 1 3 0.816
1364 205 3 243 1 1 3 2 0 1 0.609
1365 205 3 244 1 1 0 2 1 0 0.876
1366 205 3 245 0 0 0 2 0 1 0.89
1367 205 3 246 0 0 3 2 1 3 1.18
1368 205 3 247 3 0 1 0 1 1 2.204
1369 205 3 248 2 2 3 1 1 3 0.567
1370 205 3 249 0 0 1 2 0 3 1.569
1371 205 3 250 3 2 2 0 0 1 0.999
1372 205 3 251 3 3 0 2 0 2 1.493
1373 205 3 252 2 2 1 2 1 1 1.793
1374 205 3 253 3 3 3 1 0 0 0.587
1375 205 3 254 1 1 2 2 1 2 0.983
1376 205 3 255 2 2 2 2 0 1 0.61
1377 205 3 256 1 2 0 0 1 0 1.578
1378 205 3 257 2 2 0 2 0 1 1.039
1379 205 3 258 1 0 2 0 1 2 0.775
1380 206 2 160 3 3 0 1 1 0 0.504
1381 205 3 259 3 0 3 0 1 3 1.238
1382 206 2 161 0 0 2 2 1 2 0.355
1383 205 3 260 0 0 0 1 1 0 0.9
1384 206 2 162 3 0 1 0 1 1 0.36
1385 205 3 261 1 1 0 1 1 0 1.022
1386 206 2 163 2 2 2 1 1 2 0.261
1387 205 3 262 3 3 1 1 0 2 0.643
1388 206 2 164 3 1 0 0 1 0 0.381
1389 206 2 165 0 0 3 1 1 3 0.274
1390 205 3 263 2 2 2 2 0 1 1.022
1391 206 2 166 3 3 2 1 1 2 0.241
1392 205 3 264 0 0 3 1 1 3 0.503
1393 206 2 167 0 0 2 1 1 2 0.33
1394 205 3 265 3 3 1 2 0 2 0.595
1395 206 2 168 0 0 2 1 1 2 0.224
1396 205 3 266 1 1 2 1 1 2 0.875
1397 206 2 169 1 0 2 0 1 2 0.202
1398 205 3 267 1 1 1 2 1 1 1.002
1399 206 2 170 2 1 2 0 1 2 0.275
1400 206 2 171 2 2 2 2 1 2 0.222
1401 205 3 268 0 0 0 2 1 0 0.995
1402 206 2 172 1 1 2 1 1 2 0.288
1403 205 3 269 1 1 1 1 0 2 0.794
1404 206 2 173 0 0 0 2 1 0 0.379
1405 205 3 270 1 2 2 0 0 1 1.132
1406 206 2 174 0 0 2 1 1 2 0.271
1407 205 3 271 1 2 2 0 0 1 0.577
1408 206 2 175 2 1 1 0 0 0 0.879
1409 205 3 272 0 0 2 1 0 0 0.619
1410 206 2 176 0 1 1 0 1 1 0.349
1411 205 3 273 3 3 1 1 1 1 1.426
1412 206 2 177 3 3 0 2 1 0 0.526
1413 205 3 274 1 2 3 0 0 2 0.65
1414 206 2 178 0 1 3 0 1 3 0.308
1415 206 2 179 1 1 3 2 1 3 0.255
1416 205 3 275 0 1 0 0 0 1 0.768
1417 206 2 180 1 0 1 0 0 0 0.303
1418 205 3 276 0 1 1 0 0 2 1.667
1419 206 2 181 1 1 1 1 1 1 0.926
1420 205 3 277 2 0 2 0 1 2 0.853
1421 206 2 182 0 0 1 2 1 1 0.514
1422 206 2 183 1 2 0 0 1 0 0.361
1423 205 3 278 2 2 0 2 1 0 1.844
1424 206 2 184 3 3 2 2 1 2 0.361
1425 205 3 279 0 0 3 1 1 3 0.748
1426 206 2 185 2 2 3 2 1 3 0.362
1427 205 3 280 3 3 1 2 0 2 0.751
1428 206 2 186 3 3 3 1 1 3 0.247
1429 206 2 187 1 1 2 2 1 2 0.347
1430 205 3 281 3 3 3 2 0 1 2.23
1431 206 2 188 0 1 3 0 1 3 0.265
1432 205 3 282 0 2 3 0 1 3 0.819
1433 206 2 189 2 2 0 2 1 0 0.396
1434 205 3 283 0 0 0 1 1 0 0.784
1435 206 2 190 1 2 1 0 1 1 0.384
1436 205 3 284 1 1 1 2 1 1 0.85
1437 206 2 191 1 1 2 1 1 2 0.26
1438 206 2 192 3 3 2 1 1 2 0.309
1439 205 3 285 3 0 2 0 1 2 0.814
1440 206 2 193 0 1 1 0 1 1 0.371
1441 205 3 286 2 2 0 2 0 1 0.719
1442 206 2 194 2 3 0 0 1 0 0.576
1443 205 3 287 0 2 2 0 1 2 0.803
1444 206 2 195 2 2 0 2 1 0 0.368
1445 205 3 288 0 0 1 1 0 2 0.624
1446 205 3 289 3 3 2 2 0 3 0.859
1447 206 2 196 2 0 2 0 0 0 2.973
1448 205 3 290 3 3 1 2 1 1 0.862
1449 206 2 197 1 1 0 2 1 0 0.38
1450 205 3 291 2 2 1 1 0 0 0.841
1451 206 2 198 1 1 2 1 1 2 0.352
1452 205 3 292 2 0 0 0 1 0 0.761
1453 206 2 199 1 2 1 0 1 1 0.341
1454 206 2 200 3 3 3 2 1 3 0.341
1455 205 3 293 3 2 2 0 1 2 0.744
1456 206 2 201 2 2 2 2 1 2 0.223
1457 205 3 294 3 1 0 0 1 0 0.792
1458 206 2 202 1 1 2 2 1 2 0.276
1459 205 3 295 2 0 1 0 1 1 0.422
1460 206 2 203 2 2 2 1 1 2 0.227
1461 205 3 296 1 1 3 1 0 1 0.561
1462 206 2 204 2 2 3 2 1 3 0.352
1463 205 3 297 3 3 1 2 0 2 0.526
1464 206 2 205 0 2 1 0 1 1 0.43
1465 205 3 298 1 1 2 2 1 2 0.829
1466 206 2 206 3 2 0 0 0 1 0.312
1467 205 3 299 1 2 1 0 1 1 0.696
1468 206 2 207 1 2 0 0 1 0 0.475
1469 205 3 300 3 3 2 2 1 2 0.685
1470 206 2 208 2 1 1 0 1 1 0.323
1471 206 2 209 0 2 3 0 1 3 0.337
1472 205 3 301 3 3 2 1 1 2 0.447
1473 206 2 210 0 2 1 0 1 1 0.446
1474 205 3 302 2 0 1 0 1 1 0.697
1475 206 2 211 2 3 1 0 1 1 0.504
1476 205 3 303 1 1 1 2 1 1 0.942
1477 206 2 212 0 1 1 0 1 1 0.432
1478 205 3 304 0 0 2 2 1 2 0.763
1479 206 2 213 2 2 1 2 1 1 0.39
1480 205 3 305 3 2 2 0 1 2 0.681
1481 206 2 214 3 3 0 1 1 0 0.457
1482 205 3 306 2 2 0 1 1 0 0.737
1483 206 2 215 3 3 2 2 1 2 0.39
1484 205 3 307 1 1 2 2 0 1 0.597
1485 206 2 216 3 3 0 1 1 0 0.474
1486 205 3 308 3 3 0 2 0 3 0.401
1487 206 2 217 3 3 1 1 1 1 0.298
1488 206 2 218 2 2 3 2 1 3 0.301
1489 205 3 309 2 0 2 0 1 2 1.024
1490 206 2 219 1 1 0 2 1 0 0.423
1491 205 3 310 0 0 1 1 1 1 0.838
1492 206 2 220 2 2 1 1 1 1 0.33
1493 205 3 311 1 1 3 2 0 1 0.581
1494 206 2 221 0 1 0 0 1 0 0.384
1495 205 3 312 2 0 2 0 1 2 0.606
1496 206 2 222 3 3 0 2 1 0 0.423
1497 205 3 313 3 3 0 2 0 3 0.582
1498 206 2 223 1 1 3 1 1 3 0.281
1499 205 3 314 2 0 2 0 1 2 0.416
1500 206 2 224 2 2 2 1 1 2 0.249
1501 205 3 315 0 0 2 1 1 2 0.395
1502 206 2 225 1 1 1 2 1 1 0.358
1503 205 3 316 1 1 2 2 0 1 0.619
1504 206 2 226 1 1 2 1 1 2 0.282
1505 205 3 317 0 1 0 0 1 0 0.803
1506 206 2 227 3 3 3 1 1 3 0.242
1507 205 3 318 1 1 2 1 1 2 0.528
1508 206 2 228 1 0 2 0 1 2 0.28
1509 206 2 229 1 2 2 0 1 2 0.272
1510 205 3 319 3 3 0 2 0 2 1.723
1511 206 2 230 2 2 3 1 1 3 0.264
1512 206 2 231 3 3 3 1 1 3 0.288
1513 206 2 232 0 0 2 1 1 2 0.287
1514 206 2 233 2 2 3 1 1 3 0.294
1515 206 2 234 3 3 1 2 1 1 0.329
1516 206 2 235 2 2 0 2 1 0 0.363
1517 206 2 236 1 0 1 0 1 1 0.288
1518 206 2 237 1 1 2 1 1 2 0.263
1519 206 2 238 1 1 3 2 1 3 0.275
1520 206 2 239 3 1 3 0 1 3 0.242
1521 205 4 320 3 3 1 2 1 1 0.867
1522 205 4 321 1 1 1 1 1 1 0.35
1523 205 4 322 0 0 2 1 0 0 0.556
1524 205 4 323 1 2 1 0 1 1 0.502
1525 205 4 324 0 0 3 2 1 3 1.154
1526 205 4 325 0 0 0 1 1 0 0.755
1527 205 4 326 0 0 0 2 1 0 0.421
1528 205 4 327 1 1 1 1 1 1 0.816
1529 205 4 328 3 3 1 1 0 3 0.397
1530 205 4 329 0 0 2 2 1 2 0.752
1531 205 4 330 1 1 3 2 0 1 0.547
1532 205 4 331 0 0 1 2 0 0 0.785
1533 205 4 332 0 0 0 2 1 0 0.662
1534 205 4 333 1 1 1 2 1 1 1.036
1535 205 4 334 2 2 3 2 1 3 0.789
1536 205 4 335 2 2 2 2 1 2 0.759
1537 205 4 336 2 0 0 0 1 0 0.902
1538 205 4 337 3 3 0 2 1 0 0.899
1539 205 4 338 3 3 3 1 1 3 0.701
1540 205 4 339 1 1 0 1 1 0 0.686
1541 205 4 340 3 1 0 0 0 1 0.976
1542 205 4 341 3 3 0 2 0 3 0.478
1543 205 4 342 1 1 0 1 0 2 0.49
1544 205 4 343 1 1 3 2 1 3 1.146
1545 205 4 344 2 0 0 0 1 0 0.828
1546 205 4 345 2 3 0 0 0 1 0.761
1547 205 4 346 0 0 0 1 1 0 0.854
1548 205 4 347 0 1 1 0 1 1 0.513
1549 205 4 348 2 2 2 1 0 1 0.666
1550 205 4 349 0 0 0 1 1 0 0.384
1551 205 4 350 3 1 0 0 0 1 0.476
1552 205 4 351 0 0 3 1 1 3 0.809
1553 205 4 352 0 1 0 0 1 0 0.903
1554 205 4 353 1 1 0 2 0 1 1.012
1555 205 4 354 3 1 0 0 1 0 0.478
1556 205 4 355 3 2 2 0 1 2 0.711
1557 206 3 240 0 0 2 2 1 2 0.291
1558 205 4 356 3 3 2 2 1 2 0.859
1559 206 3 241 0 2 1 0 0 0 0.882
1560 205 4 357 3 3 2 1 1 2 0.791
1561 206 3 242 0 0 0 1 1 0 0.536
1562 206 3 243 1 1 1 2 1 1 0.346
1563 205 4 358 2 2 2 2 1 2 0.633
1564 206 3 244 0 0 0 2 1 0 0.475
1565 205 4 359 2 2 0 2 0 3 1.968
1566 206 3 245 0 1 0 0 1 0 0.412
1567 205 4 360 3 3 3 2 0 1 1.227
1568 206 3 246 3 2 2 0 1 2 0.239
1569 206 3 247 1 2 3 0 1 3 0.32
1570 205 4 361 2 2 3 2 0 0 0.865
1571 206 3 248 1 1 0 1 1 0 0.318
1572 205 4 362 3 3 2 1 1 2 0.672
1573 206 3 249 2 3 1 0 0 0 1.002
1574 205 4 363 0 1 0 0 0 1 0.93
1575 206 3 250 3 3 3 1 1 3 0.275
1576 205 4 364 3 0 1 0 0 0 1.582
1577 206 3 251 3 3 3 1 1 3 0.203
1578 205 4 365 1 1 1 2 1 1 0.823
1579 206 3 252 2 0 1 0 1 1 0.437
1580 205 4 366 2 1 2 0 1 2 0.628
1581 206 3 253 0 0 2 2 1 2 0.29
1582 206 3 254 2 3 2 0 1 2 0.33
1583 205 4 367 1 0 1 0 0 0 0.952
1584 206 3 255 0 2 0 0 1 0 0.711
1585 205 4 368 0 0 3 1 1 3 0.707
1586 206 3 256 0 2 3 0 1 3 0.272
1587 205 4 369 0 1 3 0 1 3 0.596
1588 206 3 257 3 3 1 2 1 1 0.395
1589 205 4 370 3 2 0 0 1 0 0.841
1590 206 3 258 0 0 3 2 1 3 0.282
1591 205 4 371 3 3 0 2 1 0 0.649
1592 206 3 259 3 1 1 0 1 1 0.354
1593 206 3 260 2 2 1 2 1 1 0.338
1594 205 4 372 1 2 3 0 0 1 1.404
1595 206 3 261 1 1 0 1 1 0 0.28
1596 205 4 373 2 2 0 1 1 0 0.664
1597 206 3 262 0 0 2 2 1 2 0.267
1598 205 4 374 1 1 3 1 1 3 0.746
1599 206 3 263 0 0 1 1 1 1 0.284
1600 205 4 375 1 1 3 2 0 2 0.59
1601 206 3 264 0 0 3 2 0 2 0.263
1602 205 4 376 0 1 0 0 1 0 0.854
1603 206 3 265 2 2 0 2 0 2 0.766
1604 205 4 377 2 1 3 0 1 3 0.706
1605 206 3 266 3 3 3 2 1 3 0.22
1606 206 3 267 3 0 0 0 1 0 0.438
1607 205 4 378 0 0 0 2 1 0 0.806
1608 206 3 268 3 3 3 1 1 3 0.199
1609 205 4 379 3 2 0 0 1 0 0.596
1610 206 3 269 3 3 2 2 1 2 0.326
1611 205 4 380 1 2 2 0 1 2 0.713
1612 206 3 270 3 3 3 2 1 3 0.279
1613 205 4 381 1 2 3 0 1 3 0.554
1614 206 3 271 0 0 0 2 1 0 0.434
1615 205 4 382 0 0 3 1 1 3 0.64
1616 206 3 272 3 0 1 0 1 1 0.22
1617 205 4 383 0 0 3 1 1 3 0.355
1618 206 3 273 1 1 3 2 1 3 1.578
1619 205 4 384 0 2 1 0 1 1 1.873
1620 206 3 274 3 3 1 2 1 1 0.439
1621 206 3 275 0 0 0 2 1 0 0.396
1622 205 4 385 1 2 0 0 1 0 0.632
1623 206 3 276 0 0 3 1 1 3 0.279
1624 205 4 386 3 3 2 2 1 2 0.703
1625 206 3 277 3 3 3 2 1 3 0.323
1626 205 4 387 0 0 3 1 1 3 0.772
1627 206 3 278 0 0 3 1 1 3 0.321
1628 206 3 279 1 1 2 1 1 2 0.183
1629 205 4 388 0 2 1 0 0 0 2.594
1630 206 3 280 1 1 0 2 1 0 0.333
1631 205 4 389 0 1 1 0 0 2 0.547
1632 206 3 281 0 0 0 1 1 0 0.435
1633 206 3 282 0 0 3 1 1 3 0.277
1634 205 4 390 2 0 2 0 0 1 1.566
1635 206 3 283 2 2 3 1 1 3 0.325
1636 205 4 391 0 0 3 1 1 3 0.691
1637 206 3 284 2 1 0 0 1 0 0.475
1638 205 4 392 2 2 0 1 1 0 0.709
1639 206 3 285 0 0 2 2 1 2 0.239
1640 205 4 393 3 3 3 1 1 3 0.677
1641 206 3 286 3 3 1 1 1 1 0.36
1642 205 4 394 1 1 0 2 0 2 0.683
1643 206 3 287 3 2 1 0 0 0 1.037
1644 205 4 395 1 1 0 2 0 1 0.644
1645 206 3 288 2 2 0 1 1 0 0.365
1646 205 4 396 1 0 1 0 1 1 0.971
1647 206 3 289 0 0 1 2 1 1 0.405
1648 206 3 290 2 3 0 0 1 0 0.328
1649 205 4 397 2 0 0 0 0 2 1.378
1650 206 3 291 1 1 3 2 1 3 0.314
1651 205 4 398 2 1 1 0 1 1 0.511
1652 206 3 292 1 1 2 1 1 2 0.288
1653 205 4 399 1 1 0 1 0 1 0.759
1654 206 3 293 1 2 3 0 1 3 0.287
1655 206 3 294 3 0 0 0 1 0 0.511
1656 206 3 295 3 3 2 2 1 2 0.418
1657 205 5 400 0 0 1 2 1 1 0.79
1658 206 3 296 3 3 2 1 1 2 0.308
1659 205 5 401 2 2 1 2 1 1 0.436
1660 206 3 297 0 0 1 2 1 1 0.398
1661 205 5 402 1 1 1 1 1 1 0.335
1662 206 3 298 2 2 1 2 1 1 0.413
1663 205 5 403 0 0 0 1 0 1 0.877
1664 206 3 299 3 3 0 1 1 0 0.36
1665 205 5 404 0 0 3 1 1 3 0.844
1666 206 3 300 1 0 1 0 0 0 0.317
1667 206 3 301 3 3 0 1 1 0 0.407
1668 205 5 405 3 3 0 1 0 1 1.031
1669 206 3 302 0 0 2 1 1 2 0.282
1670 205 5 406 3 1 1 0 1 1 0.352
1671 206 3 303 1 1 2 1 1 2 0.233
1672 205 5 407 3 3 0 1 1 0 0.75
1673 206 3 304 2 1 3 0 1 3 0.307
1674 205 5 408 2 2 2 2 0 1 0.465
1675 206 3 305 1 2 0 0 1 0 0.322
1676 205 5 409 0 2 0 0 1 0 0.75
1677 206 3 306 3 3 2 2 1 2 0.307
1678 205 5 410 0 0 0 1 1 0 0.574
1679 206 3 307 1 1 1 2 1 1 0.333
1680 205 5 411 3 3 2 1 1 2 0.771
1681 206 3 308 3 3 3 1 1 3 0.227
1682 205 5 412 3 3 2 1 1 2 0.401
1683 206 3 309 3 1 2 0 1 2 0.229
1684 206 3 310 0 1 0 0 1 0 0.279
1685 205 5 413 3 3 0 2 1 0 0.785
1686 206 3 311 1 1 0 2 0 1 0.322
1687 205 5 414 2 2 1 1 1 1 0.511
1688 206 3 312 3 3 2 1 1 2 0.387
1689 205 5 415 1 1 1 1 1 1 0.455
1690 206 3 313 3 3 3 2 1 3 0.362
1691 205 5 416 1 1 0 1 1 0 0.881
1692 206 3 314 1 1 2 1 1 2 0.271
1693 205 5 417 1 1 2 1 1 2 0.588
1694 206 3 315 2 3 0 0 1 0 0.375
1695 205 5 418 2 0 1 0 1 1 0.577
1696 206 3 316 1 0 0 0 1 0 0.347
1697 205 5 419 1 2 1 0 0 0 0.551
1698 206 3 317 1 1 2 1 1 2 0.265
1699 206 3 318 3 3 2 2 1 2 0.3
1700 205 5 420 3 0 2 0 0 0 0.785
1701 206 3 319 2 2 1 1 1 1 0.387
1702 205 5 421 3 1 0 0 0 1 0.787
1703 205 5 422 3 2 0 0 1 0 0.501
1704 205 5 423 1 1 0 1 1 0 0.765
1705 205 5 424 0 0 3 1 1 3 1.019
1706 205 5 425 2 2 1 1 1 1 1.345
1707 205 5 426 2 2 3 1 0 1 4.315
1708 205 5 427 0 1 0 0 0 1 1.18
1709 205 5 428 2 2 3 1 1 3 0.816
1710 205 5 429 2 2 2 1 1 2 0.941
1711 205 5 430 3 1 0 0 0 2 0.902
1712 205 5 431 0 0 0 2 1 0 0.903
1713 205 5 432 1 2 0 0 0 1 0.481
1714 205 5 433 0 0 2 1 1 2 0.701
1715 205 5 434 0 1 3 0 0 1 0.383
1716 205 5 435 2 2 0 2 1 0 0.818
1717 205 5 436 2 2 2 1 1 2 0.655
1718 205 5 437 0 2 2 0 0 1 0.385
1719 205 5 438 2 2 2 2 1 2 0.597
1720 205 5 439 3 2 2 0 1 2 0.474
1721 205 5 440 2 2 3 1 1 3 0.739
1722 205 5 441 0 0 0 1 1 0 0.755
1723 205 5 442 3 3 3 2 0 1 0.58
1724 205 5 443 1 1 0 2 1 0 1.265
1725 205 5 444 0 1 2 0 1 2 0.782
1726 206 4 320 0 1 1 0 1 1 0.345
1727 206 4 321 0 0 2 1 1 2 0.335
1728 205 5 445 2 2 1 2 1 1 0.848
1729 206 4 322 3 2 1 0 1 1 0.341
1730 205 5 446 2 1 3 0 0 1 0.637
1731 206 4 323 1 0 3 0 1 3 0.282
1732 205 5 447 1 1 3 2 0 1 0.599
1733 206 4 324 0 0 3 1 1 3 0.362
1734 205 5 448 3 0 0 0 1 0 0.464
1735 206 4 325 1 2 1 0 1 1 0.287
1736 205 5 449 1 1 3 1 0 1 0.537
1737 206 4 326 3 3 3 2 1 3 0.265
1738 205 5 450 0 1 0 0 0 1 0.42
1739 206 4 327 1 0 2 0 1 2 0.35
1740 205 5 451 0 0 1 1 0 0 0.898
1741 206 4 328 0 0 2 2 1 2 0.191
1742 205 5 452 0 0 3 2 1 3 1.156
1743 206 4 329 1 1 3 1 1 3 0.306
1744 206 4 330 3 3 0 2 1 0 0.38
1745 205 5 453 0 1 0 0 0 1 1.664
1746 206 4 331 3 3 3 2 1 3 0.308
1747 205 5 454 2 2 3 2 0 1 0.579
1748 206 4 332 3 3 3 1 1 3 0.21
1749 205 5 455 3 3 3 2 1 3 1.071
1750 206 4 333 0 0 3 2 1 3 0.336
1751 205 5 456 3 3 3 1 1 3 0.403
1752 206 4 334 3 2 2 0 1 2 0.469
1753 205 5 457 2 2 3 2 0 2 0.53
1754 206 4 335 3 1 0 0 1 0 0.35
1755 206 4 336 1 1 2 2 1 2 0.215
1756 205 5 458 3 2 3 0 1 3 0.701
1757 206 4 337 2 2 3 1 1 3 0.337
1758 205 5 459 0 0 1 1 1 1 0.718
1759 206 4 338 2 2 3 2 1 3 0.282
1760 205 5 460 2 1 0 0 1 0 0.751
1761 206 4 339 3 3 3 2 1 3 0.254
1762 205 5 461 3 3 3 2 0 2 0.77
1763 206 4 340 1 2 1 0 1 1 0.358
1764 205 5 462 3 0 3 0 1 3 0.452
1765 206 4 341 1 1 1 1 1 1 0.295
1766 205 5 463 3 3 0 2 0 2 0.738
1767 206 4 342 3 3 3 2 1 3 0.289
1768 205 5 464 0 2 3 0 0 1 0.565
1769 206 4 343 3 1 0 0 1 0 0.336
1770 206 4 344 1 1 0 2 1 0 0.506
1771 205 5 465 2 2 3 1 1 3 0.623
1772 206 4 345 2 0 3 0 1 3 0.297
1773 205 5 466 3 3 3 1 1 3 0.499
1774 206 4 346 0 0 3 1 1 3 0.185
1775 205 5 467 1 1 3 2 0 2 0.495
1776 206 4 347 3 3 1 2 1 1 0.408
1777 205 5 468 2 2 0 2 1 0 0.687
1778 206 4 348 0 0 2 1 1 2 0.29
1779 205 5 469 3 3 3 2 1 3 0.628
1780 206 4 349 1 1 2 1 1 2 0.274
1781 205 5 470 0 0 1 2 1 1 0.649
1782 206 4 350 2 2 2 1 1 2 0.217
1783 205 5 471 2 1 2 0 1 2 0.397
1784 206 4 351 1 1 3 2 1 3 0.295
1785 205 5 472 3 3 3 1 1 3 0.457
1786 206 4 352 0 1 2 0 1 2 0.278
1787 205 5 473 0 0 2 1 0 0 0.611
1788 206 4 353 3 0 1 0 1 1 0.198
1789 206 4 354 1 2 3 0 1 3 0.345
1790 205 5 474 3 0 1 0 1 1 0.875
1791 205 5 475 0 0 1 2 0 2 0.377
1792 206 4 355 1 1 0 2 1 0 0.474
1793 205 5 476 3 3 2 1 0 3 0.426
1794 206 4 356 2 2 3 2 1 3 0.342
1795 205 5 477 2 2 2 2 0 1 0.684
1796 206 4 357 0 0 1 2 0 0 0.846
1797 206 4 358 2 2 1 1 1 1 0.326
1798 205 5 478 0 0 2 1 1 2 0.865
1799 206 4 359 1 1 2 1 1 2 0.244
1800 205 5 479 0 0 3 2 1 3 0.479
1801 206 4 360 0 0 3 1 1 3 0.253
1802 206 4 361 0 0 1 1 1 1 0.293
1803 206 4 362 2 2 1 2 1 1 0.304
1804 206 4 363 0 0 3 2 1 3 0.274
1805 206 4 364 2 2 1 1 1 1 0.578
1806 206 4 365 3 3 0 1 1 0 0.463
1807 206 4 366 0 0 1 2 1 1 0.284
1808 206 4 367 3 3 0 1 1 0 0.499
1809 206 4 368 2 2 0 1 1 0 0.387
1810 206 4 369 3 2 3 0 1 3 0.287
1811 206 4 370 0 0 0 2 1 0 0.362
1812 206 4 371 3 2 1 0 1 1 0.326
1813 206 4 372 2 0 1 0 1 1 0.252
1814 206 4 373 3 3 1 2 1 1 0.328
1815 206 4 374 3 3 3 2 1 3 0.322
1816 206 4 375 0 0 2 1 1 2 0.328
1817 206 4 376 3 3 3 1 1 3 0.245
1818 206 4 377 2 2 1 2 0 0 1.586
1819 206 4 378 1 1 1 2 1 1 0.314
1820 206 4 379 3 3 0 2 0 3 0.652
1821 206 4 380 1 2 0 0 1 0 0.386
1822 206 4 381 2 3 1 0 1 1 0.302
1823 206 4 382 3 2 3 0 0 2 0.26
1824 206 4 383 3 0 3 0 1 3 0.32
1825 206 4 384 0 2 0 0 1 0 0.326
1826 206 4 385 3 3 3 2 1 3 0.248
1827 206 4 386 1 1 2 2 0 0 0.78
1828 206 4 387 0 2 0 0 1 0 0.326
1829 206 4 388 2 2 2 1 1 2 0.268
1830 206 4 389 0 0 3 2 1 3 0.335
1831 206 4 390 3 1 1 0 1 1 0.324
1832 206 4 391 0 2 3 0 1 3 0.266
1833 206 4 392 0 1 1 0 1 1 0.362
1834 206 4 393 1 1 0 1 1 0 0.359
1835 206 4 394 2 2 2 2 1 2 0.263
1836 206 4 395 0 0 1 1 1 1 0.375
1837 206 4 396 2 2 3 2 1 3 0.287
1838 206 4 397 1 1 3 1 0 2 0.246
1839 206 4 398 1 1 3 1 1 3 0.227
1840 206 4 399 2 2 0 2 1 0 0.456
1841 206 5 400 2 2 3 1 1 3 0.266
1842 206 5 401 3 3 1 1 1 1 0.29
1843 206 5 402 1 1 0 1 1 0 0.353
1844 206 5 403 2 2 1 1 1 1 0.286
1845 206 5 404 2 2 0 1 1 0 0.341
1846 206 5 405 0 0 1 1 1 1 0.291
1847 206 5 406 1 1 0 1 1 0 0.226
1848 206 5 407 1 2 3 0 1 3 0.308
1849 206 5 408 3 3 3 1 1 3 0.242
1850 206 5 409 1 1 2 2 1 2 0.303
1851 206 5 410 1 0 1 0 1 1 0.214
1852 206 5 411 1 1 0 1 1 0 0.36
1853 206 5 412 2 2 1 2 1 1 0.304
1854 206 5 413 1 1 3 1 1 3 0.271
1855 206 5 414 3 3 3 1 1 3 0.231
1856 206 5 415 2 1 3 0 1 3 0.208
1857 206 5 416 0 1 1 0 1 1 0.298
1858 206 5 417 1 2 1 0 1 1 0.297
1859 206 5 418 0 0 2 2 1 2 0.332
1860 206 5 419 0 0 2 1 1 2 0.162
1861 206 5 420 0 2 3 0 1 3 0.342
1862 206 5 421 0 0 3 1 1 3 0.388
1863 206 5 422 1 1 1 2 1 1 0.299
1864 206 5 423 1 1 0 1 1 0 0.434
1865 206 5 424 1 1 1 2 1 1 0.336
1866 206 5 425 3 3 3 1 1 3 0.189
1867 206 5 426 3 3 0 1 1 0 0.48
1868 206 5 427 0 0 0 1 1 0 0.377
1869 206 5 428 3 1 3 0 1 3 0.269
1870 206 5 429 1 1 0 1 1 0 0.381
1871 206 5 430 2 2 2 2 1 2 0.277
1872 206 5 431 2 2 0 2 1 0 0.632
1873 206 5 432 2 2 3 1 1 3 0.268
1874 206 5 433 1 1 0 1 0 1 0.291
1875 206 5 434 1 0 1 0 1 1 0.55
1876 206 5 435 0 0 1 2 1 1 0.311
1877 206 5 436 0 0 1 1 1 1 0.39
1878 206 5 437 3 0 3 0 1 3 0.314
1879 206 5 438 3 3 2 2 1 2 0.516
1880 206 5 439 1 1 3 1 1 3 0.227
1881 206 5 440 0 2 2 0 1 2 0.332
1882 206 5 441 2 2 1 1 1 1 0.37
1883 206 5 442 2 2 1 2 1 1 0.314
1884 206 5 443 2 2 3 1 1 3 0.256
1885 206 5 444 3 3 3 1 1 3 0.28
1886 206 5 445 2 0 3 0 1 3 0.304
1887 206 5 446 1 1 0 2 1 0 0.346
1888 206 5 447 1 1 0 2 1 0 0.355
1889 206 5 448 3 3 0 2 1 0 0.476
1890 206 5 449 3 1 0 0 1 0 0.612
1891 206 5 450 2 2 2 2 1 2 0.22
1892 206 5 451 1 1 1 2 1 1 0.353
1893 206 5 452 1 1 1 1 1 1 0.294
1894 206 5 453 0 0 1 2 1 1 0.56
1895 206 5 454 0 0 1 2 1 1 0.305
1896 206 5 455 0 0 0 1 1 0 0.848
1897 206 5 456 2 2 3 1 0 0 0.937
1898 206 5 457 3 3 1 2 1 1 0.344
1899 206 5 458 1 1 3 2 1 3 0.329
1900 206 5 459 2 2 3 1 1 3 0.286
1901 206 5 460 3 2 3 0 1 3 0.244
1902 206 5 461 3 0 2 0 1 2 0.269
1903 206 5 462 3 0 2 0 1 2 0.245
1904 206 5 463 3 3 3 2 1 3 0.289
1905 206 5 464 3 3 2 1 1 2 0.345
1906 206 5 465 1 1 3 2 0 0 0.73
1907 206 5 466 2 2 2 2 1 2 0.208
1908 206 5 467 1 1 2 1 1 2 0.203
1909 206 5 468 0 1 2 0 1 2 0.229
1910 206 5 469 2 2 1 2 1 1 0.386
1911 206 5 470 2 1 0 0 1 0 0.373
1912 206 5 471 3 3 0 2 1 0 0.469
1913 206 5 472 2 2 3 1 1 3 0.302
1914 206 5 473 0 0 0 1 0 1 0.244
1915 206 5 474 2 2 3 2 1 3 0.341
1916 206 5 475 2 2 0 2 1 0 0.366
1917 206 5 476 0 0 0 2 1 0 0.374
1918 206 5 477 0 0 2 2 1 2 0.294
1919 206 5 478 2 3 1 0 1 1 0.405
1920 206 5 479 2 0 3 0 1 3 0.248
1921 209 0 0 2 3 0 0 0 3 1.621
1922 209 0 1 0 0 1 2 0 2 2.78
1923 209 0 2 1 1 1 2 0 0 2.136
1924 209 0 3 1 1 1 1 1 1 2.681
1925 209 0 4 0 0 3 2 1 3 0.927
1926 209 0 5 2 2 2 2 0 3 0.978
1927 209 0 6 1 1 0 2 0 3 0.967
1928 209 0 7 2 1 2 0 0 0 1.153
1929 209 0 8 2 2 2 2 0 1 1.329
1930 209 0 9 0 2 2 0 1 2 1.742
1931 209 0 10 1 2 2 0 0 3 1.618
1932 209 0 11 2 2 0 2 0 3 0.985
1933 209 0 12 1 2 3 0 1 3 0.786
1934 209 0 13 2 2 1 1 0 2 1.031
1935 209 0 14 3 1 0 0 1 0 1.191
1936 209 0 15 1 1 2 1 0 1 0.934
1937 209 0 16 1 1 1 2 0 3 1.725
1938 209 0 17 0 0 0 2 1 0 1.364
1939 209 0 18 3 3 3 1 0 1 2.221
1940 209 0 19 1 0 2 0 0 3 1.114
1941 209 0 20 2 2 2 1 1 2 2.839
1942 209 0 21 3 2 0 0 0 3 1.338
1943 209 0 22 3 3 0 1 1 0 1.184
1944 209 0 23 3 3 2 2 1 2 1.131
1945 209 0 24 0 2 1 0 1 1 1.628
1946 209 0 25 3 3 3 1 1 3 1.419
1947 209 0 26 1 1 1 2 0 0 1.157
1948 209 0 27 3 3 3 2 0 1 1.861
1949 209 0 28 2 2 2 1 0 3 1.143
1950 209 0 29 1 2 3 0 0 1 2.035
1951 209 0 30 2 1 1 0 0 2 1.344
1952 209 0 31 0 0 3 2 0 0 1.297
1953 209 0 32 1 1 0 1 0 3 0.711
1954 209 0 33 1 1 2 2 1 2 0.951
1955 209 0 34 0 0 2 2 0 1 0.954
1956 209 0 35 0 0 2 1 1 2 0.884
1957 209 0 36 2 2 1 1 1 1 0.966
1958 209 0 37 0 0 1 1 0 3 0.989
1959 209 0 38 2 2 2 1 0 0 0.83
1960 209 0 39 1 1 2 2 1 2 0.866
1961 209 0 40 3 2 1 0 1 1 1.764
1962 209 0 41 1 0 1 0 1 1 1.294
1963 209 0 42 1 1 1 2 0 2 0.925
1964 209 0 43 3 2 3 0 1 3 1.017
1965 209 0 44 1 1 3 1 1 3 0.814
1966 209 0 45 0 0 1 2 0 2 0.878
1967 209 0 46 3 3 1 2 0 0 0.768
1968 209 0 47 3 3 1 2 0 3 1.237
1969 209 0 48 0 1 1 0 1 1 1.477
1970 209 0 49 3 3 3 1 0 0 1.49
1971 209 0 50 3 0 0 0 1 0 2.273
1972 209 0 51 3 2 2 0 0 3 1.186
1973 209 0 52 1 1 0 2 0 2 1.04
1974 209 0 53 1 2 0 0 0 1 0.624
1975 209 0 54 2 2 0 1 0 3 1.751
1976 209 0 55 3 3 2 2 0 1 0.833
1977 209 0 56 0 0 0 2 1 0 1.204
1978 209 0 57 2 2 3 2 0 2 1.654
1979 209 0 58 2 2 0 2 0 1 1.939
1980 209 0 59 1 0 2 0 1 2 0.867
1981 209 0 60 2 2 2 2 0 3 0.953
1982 209 0 61 2 3 1 0 0 0 1.132
1983 209 0 62 0 2 0 0 0 1 1.464
1984 209 0 63 1 2 3 0 1 3 0.928
1985 209 0 64 3 3 0 1 0 2 3.353
1986 209 0 65 0 1 2 0 0 3 1.174
1987 209 0 66 1 0 0 0 1 0 0.881
1988 209 0 67 2 0 1 0 1 1 1.811
1989 209 0 68 1 1 3 1 1 3 0.78
1990 209 0 69 2 2 1 2 0 0 1.262
1991 209 0 70 3 3 2 1 0 1 1.557
1992 209 0 71 1 1 2 2 1 2 1.39
1993 209 0 72 1 1 3 1 0 0 1.238
1994 209 0 73 0 0 2 1 0 3 1.303
1995 209 0 74 2 2 1 1 0 3 1.093
1996 209 0 75 0 0 3 2 1 3 0.471
1997 209 0 76 0 1 0 0 1 0 0.944
1998 209 0 77 3 2 0 0 1 0 0.984
1999 209 0 78 0 2 3 0 0 2 1.566
2000 209 0 79 1 1 0 1 0 1 1.81
2001 209 1 80 0 0 0 2 1 0 0.885
2002 209 1 81 2 2 1 1 1 1 1.503
2003 209 1 82 3 3 3 2 0 2 1.549
2004 209 1 83 0 1 0 0 1 0 0.731
2005 209 1 84 2 2 3 1 1 3 0.626
2006 209 1 85 2 1 0 0 0 2 1.905
2007 209 1 86 2 2 0 2 1 0 1.758
2008 209 1 87 1 1 0 2 1 0 0.748
2009 209 1 88 3 0 0 0 0 2 1.387
2010 209 1 89 2 1 1 0 1 1 0.711
2011 209 1 90 0 0 2 1 1 2 0.798
2012 209 1 91 3 1 3 0 0 0 1.387
2013 209 1 92 0 0 1 2 1 1 0.778
2014 209 1 93 3 3 1 2 0 2 0.716
2015 209 1 94 0 0 3 1 1 3 1.04
2016 209 1 95 0 0 3 1 1 3 0.524
2017 209 1 96 1 1 2 1 0 0 1.435
2018 209 1 97 0 1 0 0 0 1 1.285
2019 209 1 98 3 1 3 0 0 0 1.668
2020 209 1 99 2 1 1 0 0 2 1.285
2021 209 1 100 0 1 0 0 0 1 2.372
2022 209 1 101 2 2 2 2 0 3 1.584
2023 209 1 102 2 2 1 2 0 2 1.68
2024 209 1 103 2 2 0 2 0 1 1.797
2025 209 1 104 1 1 3 1 1 3 0.945
2026 209 1 105 3 3 1 1 1 1 0.841
2027 209 1 106 2 2 3 2 1 3 1.192
2028 209 1 107 3 0 0 0 0 1 2.007
2029 209 1 108 1 2 2 0 0 0 1.356
2030 209 1 109 3 3 3 1 0 2 1.273
2031 209 1 110 1 1 3 2 1 3 1.332
2032 209 1 111 0 0 3 2 0 0 1.354
2033 209 1 112 2 1 3 0 0 1 1.415
2034 209 1 113 1 1 3 1 0 0 1.209
2035 209 1 114 1 1 0 1 0 2 2.003
2036 209 1 115 3 3 2 1 0 1 1.632
2037 209 1 116 3 3 2 1 0 3 2.299
2038 209 1 117 3 3 2 1 0 0 1.31
2039 209 1 118 3 3 1 1 0 2 1.78
2040 209 1 119 0 0 2 1 1 2 0.954
2041 209 1 120 0 0 2 1 1 2 0.841
2042 209 1 121 1 1 0 2 1 0 0.872
2043 209 1 122 3 3 2 1 0 1 1.355
2044 209 1 123 0 0 2 1 1 2 0.743
2045 209 1 124 2 0 0 0 1 0 1.142
2046 209 1 125 2 1 1 0 1 1 0.679
2047 209 1 126 0 0 2 1 0 3 1.249
2048 209 1 127 2 2 0 2 1 0 1.02
2049 209 1 128 3 3 1 2 0 2 2.725
2050 209 1 129 1 1 1 1 0 0 1.657
2051 209 1 130 2 2 1 1 1 1 3.499
2052 209 1 131 3 3 1 2 1 1 0.867
2053 209 1 132 3 3 0 1 0 3 1.069
2054 209 1 133 2 2 2 2 0 0 1.351
2055 209 1 134 2 2 0 2 0 3 2.808
2056 209 1 135 1 1 0 1 1 0 1.089
2057 209 1 136 0 0 0 1 1 0 1.027
2058 209 1 137 0 0 1 1 1 1 0.928
2059 209 1 138 2 2 1 2 1 1 0.948
2060 209 1 139 2 0 2 0 0 0 1.34
2061 209 1 140 2 3 3 0 0 0 1.426
2062 209 1 141 1 2 1 0 0 0 1.532
2063 209 1 142 1 1 3 2 1 3 0.814
2064 209 1 143 0 1 3 0 0 0 1.699
2065 209 1 144 0 0 1 2 1 1 0.782
2066 209 1 145 1 2 3 0 1 3 1.004
2067 209 1 146 1 1 2 2 1 2 0.804
2068 209 1 147 1 1 1 1 1 1 0.777
2069 209 1 148 0 0 2 1 1 2 0.759
2070 209 1 149 0 0 0 2 1 0 0.873
2071 209 1 150 2 2 2 2 1 2 1.191
2072 209 1 151 2 1 3 0 0 0 1.574
2073 209 1 152 0 0 1 1 1 1 1.147
2074 209 1 153 3 3 1 2 0 0 1.656
2075 209 1 154 2 2 1 2 1 1 2.037
2076 209 1 155 0 0 0 2 1 0 0.842
2077 209 1 156 1 1 0 1 1 0 1.027
2078 209 1 157 1 2 0 0 1 0 0.8
2079 209 1 158 1 1 1 2 0 2 1.433
2080 209 1 159 0 0 2 2 1 2 0.694
2081 209 2 160 2 2 2 1 0 0 1.205
2082 209 2 161 1 0 0 0 0 1 1.463
2083 209 2 162 0 0 2 1 1 2 0.688
2084 209 2 163 2 2 2 1 1 2 0.609
2085 209 2 164 0 1 3 0 1 3 0.604
2086 209 2 165 2 3 0 0 1 0 0.824
2087 209 2 166 0 2 0 0 1 0 1.108
2088 209 2 167 3 3 3 1 1 3 0.566
2089 209 2 168 3 3 3 2 1 3 0.511
2090 209 2 169 1 1 3 2 0 0 1.09
2091 209 2 170 1 1 3 2 0 2 1.196
2092 209 2 171 3 3 2 1 1 2 0.615
2093 209 2 172 2 1 0 0 1 0 0.995
2094 209 2 173 3 0 3 0 0 1 1.625
2095 209 2 174 0 0 1 2 1 1 0.719
2096 209 2 175 1 1 2 1 1 2 0.711
2097 209 2 176 1 1 2 1 1 2 0.599
2098 209 2 177 2 2 1 1 1 1 0.747
2099 209 2 178 2 2 1 2 1 1 0.693
2100 209 2 179 0 0 2 2 1 2 0.65
2101 209 2 180 2 2 0 1 1 0 0.853
2102 209 2 181 2 2 3 2 1 3 0.611
2103 209 2 182 3 2 1 0 1 1 0.783
2104 209 2 183 0 1 1 0 1 1 2.252
2105 209 2 184 2 1 0 0 1 0 0.925
2106 209 2 185 3 2 3 0 1 3 0.597
2107 209 2 186 1 1 2 2 1 2 0.941
2108 209 2 187 3 1 3 0 1 3 0.598
2109 209 2 188 3 3 0 1 1 0 0.705
2110 209 2 189 0 0 3 1 1 3 0.543
2111 209 2 190 0 0 1 1 1 1 0.876
2112 209 2 191 0 0 3 1 1 3 0.551
2113 209 2 192 0 0 2 2 1 2 0.648
2114 209 2 193 2 1 1 0 0 0 1.227
2115 209 2 194 2 3 3 0 1 3 0.948
2116 209 2 195 1 2 1 0 0 0 0.948
2117 209 2 196 3 3 0 1 1 0 0.805
2118 209 2 197 1 0 1 0 1 1 0.722
2119 209 2 198 2 2 3 2 1 3 0.636
2120 209 2 199 1 1 3 1 1 3 0.55
2121 209 2 200 2 2 3 1 1 3 0.525
2122 209 2 201 2 2 2 2 1 2 0.671
2123 209 2 202 0 0 3 2 1 3 0.452
2124 209 2 203 0 0 1 1 1 1 0.813
2125 209 2 204 2 1 1 0 0 0 1.45
2126 209 2 205 0 0 3 2 1 3 0.735
2127 209 2 206 3 3 1 2 1 1 0.769
2128 209 2 207 2 2 2 2 1 2 0.627
2129 209 2 208 1 1 0 2 1 0 1.05
2130 209 2 209 1 1 0 2 0 2 0.729
2131 209 2 210 1 1 3 1 1 3 0.629
2132 209 2 211 3 3 3 1 1 3 0.608
2133 209 2 212 2 2 1 1 1 1 0.78
2134 209 2 213 3 3 2 1 1 2 0.65
2135 209 2 214 1 1 1 2 1 1 0.863
2136 209 2 215 0 1 1 0 1 1 0.618
2137 209 2 216 1 1 2 2 1 2 0.585
2138 209 2 217 1 1 2 2 1 2 0.825
2139 209 2 218 2 0 3 0 1 3 0.533
2140 209 2 219 0 0 0 2 1 0 1.007
2141 209 2 220 3 0 1 0 0 0 0.597
2142 209 2 221 0 0 0 1 1 0 0.749
2143 209 2 222 0 1 3 0 1 3 1.571
2144 209 2 223 1 1 1 2 1 1 0.8
2145 209 2 224 2 2 3 2 1 3 0.585
2146 209 2 225 0 0 3 2 1 3 0.497
2147 209 2 226 1 1 1 1 1 1 0.873
2148 209 2 227 2 2 2 2 1 2 0.687
2149 209 2 228 0 0 3 1 1 3 0.552
2150 209 2 229 1 1 1 2 1 1 1.009
2151 209 2 230 0 0 2 2 1 2 0.69
2152 209 2 231 2 2 1 1 0 2 1.491
2153 209 2 232 0 1 0 0 1 0 0.794
2154 209 2 233 1 1 0 1 0 2 0.688
2155 209 2 234 0 2 3 0 0 0 1.276
2156 209 2 235 3 3 1 1 1 1 0.772
2157 209 2 236 2 0 3 0 1 3 0.554
2158 209 2 237 3 3 0 2 1 0 0.931
2159 209 2 238 2 2 3 1 1 3 0.491
2160 209 2 239 2 2 0 1 1 0 0.955
2161 209 3 240 2 2 3 1 1 3 0.622
2162 209 3 241 0 0 0 2 1 0 0.749
2163 209 3 242 0 0 3 2 1 3 0.479
2164 209 3 243 3 0 2 0 1 2 1.512
2165 209 3 244 3 1 0 0 1 0 0.684
2166 209 3 245 3 3 2 1 1 2 0.653
2167 209 3 246 2 2 2 1 1 2 0.527
2168 209 3 247 0 0 1 1 0 0 0.67
2169 209 3 248 1 2 2 0 1 2 0.987
2170 209 3 249 2 2 0 2 1 0 0.693
2171 209 3 250 0 1 3 0 1 3 1.238
2172 209 3 251 2 2 3 1 1 3 0.419
2173 209 3 252 3 2 0 0 1 0 1.335
2174 209 3 253 3 3 0 2 1 0 0.701
2175 209 3 254 0 0 3 2 1 3 0.568
2176 209 3 255 2 1 2 0 0 1 1.701
2177 209 3 256 0 1 0 0 1 0 0.846
2178 209 3 257 0 0 3 1 1 3 0.585
2179 209 3 258 3 2 3 0 1 3 0.63
2180 209 3 259 1 1 3 1 1 3 0.353
2181 209 3 260 1 1 2 2 1 2 0.832
2182 209 3 261 3 3 2 1 1 2 0.732
2183 209 3 262 2 2 3 1 0 0 1.195
2184 209 3 263 2 2 1 2 0 2 0.745
2185 209 3 264 1 2 1 0 1 1 0.532
2186 209 3 265 0 0 0 2 1 0 0.974
2187 209 3 266 3 3 2 2 0 3 1.065
2188 209 3 267 0 0 1 2 1 1 0.764
2189 209 3 268 2 1 0 0 1 0 0.866
2190 209 3 269 0 0 2 1 1 2 0.652
2191 209 3 270 3 3 0 1 1 0 0.831
2192 209 3 271 0 0 2 1 1 2 0.683
2193 209 3 272 2 2 0 1 1 0 1.09
2194 209 3 273 1 1 3 1 1 3 0.957
2195 209 3 274 2 2 0 1 1 0 0.828
2196 209 3 275 2 2 1 1 1 1 0.735
2197 209 3 276 1 2 0 0 1 0 0.751
2198 209 3 277 3 3 1 2 1 1 0.793
2199 209 3 278 2 3 3 0 1 3 0.718
2200 209 3 279 3 3 1 2 1 1 0.865
2201 209 3 280 3 3 0 1 1 0 0.82
2202 209 3 281 0 0 3 2 1 3 0.459
2203 209 3 282 2 0 1 0 0 0 2.285
2204 209 3 283 0 0 3 2 1 3 0.42
2205 209 3 284 1 1 2 1 1 2 0.686
2206 209 3 285 1 0 0 0 1 0 0.903
2207 209 3 286 1 1 1 1 1 1 0.776
2208 209 3 287 0 1 1 0 0 0 1.118
2209 209 3 288 2 2 1 2 0 2 0.887
2210 209 3 289 2 2 1 1 1 1 0.612
2211 209 3 290 2 2 2 2 1 2 0.636
2212 209 3 291 2 2 3 1 1 3 0.486
2213 209 3 292 1 1 0 2 0 1 2.898
2214 209 3 293 1 1 3 1 1 3 0.463
2215 209 3 294 1 1 3 2 1 3 0.276
2216 209 3 295 0 0 0 2 1 0 0.879
2217 209 3 296 1 1 0 2 0 2 1.262
2218 209 3 297 2 2 1 2 1 1 0.753
2219 209 3 298 3 0 2 0 1 2 0.744
2220 209 3 299 0 0 2 1 1 2 0.559
2221 209 3 300 1 1 2 2 1 2 0.872
2222 209 3 301 0 0 0 2 1 0 0.838
2223 209 3 302 0 0 3 2 1 3 0.901
2224 209 3 303 3 3 1 1 1 1 0.878
2225 209 3 304 1 1 0 2 1 0 0.868
2226 209 3 305 0 1 1 0 1 1 0.759
2227 209 3 306 1 2 2 0 1 2 0.805
2228 209 3 307 3 0 0 0 1 0 0.778
2229 209 3 308 0 0 2 2 1 2 0.716
2230 209 3 309 2 2 1 1 1 1 0.788
2231 209 3 310 2 1 0 0 1 0 0.905
2232 209 3 311 3 3 0 1 1 0 0.818
2233 209 3 312 2 1 1 0 1 1 0.887
2234 209 3 313 3 3 2 2 1 2 0.764
2235 209 3 314 1 1 3 2 0 1 0.902
2236 209 3 315 2 2 3 1 1 3 0.555
2237 209 3 316 1 1 1 2 1 1 0.74
2238 209 3 317 1 1 3 2 0 2 1.327
2239 209 3 318 1 1 0 1 1 0 1.133
2240 209 3 319 2 2 0 2 1 0 0.689
2241 209 4 320 0 0 3 2 1 3 0.803
2242 209 4 321 2 2 3 1 1 3 0.656
2243 209 4 322 2 2 0 1 1 0 0.833
2244 209 4 323 2 2 1 2 1 1 0.761
2245 209 4 324 2 2 1 2 1 1 0.595
2246 209 4 325 1 1 3 2 1 3 0.595
2247 209 4 326 2 2 0 1 1 0 0.759
2248 209 4 327 2 3 1 0 1 1 2.478
2249 209 4 328 2 1 3 0 0 0 1.311
2250 209 4 329 1 1 3 2 0 2 1.017
2251 209 4 330 1 1 1 1 1 1 0.65
2252 209 4 331 0 0 2 2 1 2 0.688
2253 209 4 332 1 0 3 0 0 0 0.888
2254 209 4 333 2 2 2 2 1 2 0.833
2255 209 4 334 2 2 0 1 1 0 0.693
2256 209 4 335 0 0 2 2 1 2 0.673
2257 209 4 336 2 2 1 1 1 1 0.699
2258 209 4 337 0 0 0 1 1 0 0.827
2259 209 4 338 0 0 0 2 1 0 0.731
2260 209 4 339 2 2 1 2 0 2 0.942
2261 209 4 340 1 1 2 2 1 2 0.757
2262 209 4 341 2 3 3 0 1 3 0.739
2263 209 4 342 2 2 2 1 1 2 0.57
2264 209 4 343 2 2 1 1 1 1 0.744
2265 209 4 344 0 0 1 1 1 1 0.815
2266 209 4 345 1 1 3 1 1 3 0.523
2267 209 4 346 0 1 3 0 1 3 0.626
2268 209 4 347 3 3 0 2 1 0 0.945
2269 209 4 348 2 2 3 2 1 3 0.485
2270 209 4 349 2 2 1 2 1 1 0.696
2271 209 4 350 1 1 1 2 1 1 1.037
2272 209 4 351 0 0 2 2 1 2 0.733
2273 209 4 352 3 1 1 0 0 2 0.836
2274 209 4 353 2 2 2 1 1 2 0.484
2275 209 4 354 1 1 0 2 1 0 1.111
2276 209 4 355 3 2 3 0 1 3 0.609
2277 209 4 356 0 0 3 2 1 3 0.584
2278 209 4 357 3 1 3 0 1 3 0.549
2279 209 4 358 2 1 3 0 1 3 0.803
2280 209 4 359 3 3 2 1 1 2 0.68
2281 209 4 360 3 3 1 2 1 1 0.741
2282 209 4 361 2 2 0 1 1 0 0.804
2283 209 4 362 0 0 3 2 1 3 0.486
2284 209 4 363 3 1 1 0 1 1 0.734
2285 209 4 364 1 1 1 2 0 2 0.666
2286 209 4 365 2 2 0 1 1 0 0.847
2287 209 4 366 1 1 0 1 1 0 0.763
2288 209 4 367 2 2 3 1 1 3 0.577
2289 209 4 368 1 1 2 1 0 0 1.198
2290 209 4 369 0 0 2 2 1 2 0.604
2291 209 4 370 1 1 1 2 0 0 0.859
2292 209 4 371 0 0 0 1 1 0 0.898
2293 209 4 372 0 2 3 0 0 2 0.779
2294 209 4 373 2 2 2 1 1 2 0.741
2295 209 4 374 0 1 2 0 1 2 0.78
2296 209 4 375 3 3 2 1 1 2 0.842
2297 209 4 376 3 1 1 0 1 1 0.837
2298 209 4 377 3 3 1 2 1 1 0.813
2299 209 4 378 1 1 0 2 1 0 0.821
2300 209 4 379 3 0 3 0 1 3 1.273
2301 209 4 380 2 2 0 1 1 0 0.804
2302 209 4 381 1 2 3 0 1 3 0.537
2303 209 4 382 1 2 1 0 1 1 0.725
2304 209 4 383 0 2 0 0 0 3 0.668
2305 209 4 384 0 2 3 0 1 3 0.441
2306 209 4 385 2 2 0 2 1 0 0.775
2307 209 4 386 2 3 0 0 1 0 0.749
2308 209 4 387 3 3 2 1 1 2 0.659
2309 209 4 388 3 2 0 0 1 0 0.741
2310 209 4 389 0 0 0 2 1 0 0.896
2311 209 4 390 1 0 2 0 1 2 0.754
2312 209 4 391 2 2 0 1 1 0 0.68
2313 209 4 392 2 3 0 0 1 0 1.074
2314 209 4 393 1 2 2 0 1 2 0.739
2315 209 4 394 0 0 1 1 1 1 0.746
2316 209 4 395 3 1 1 0 1 1 0.722
2317 209 4 396 0 0 2 1 1 2 0.665
2318 209 4 397 1 1 0 1 1 0 0.699
2319 209 4 398 2 2 2 1 1 2 0.596
2320 209 4 399 1 1 1 2 1 1 0.707
2321 209 5 400 0 1 1 0 1 1 1.128
2322 209 5 401 3 3 0 2 1 0 0.893
2323 209 5 402 1 1 0 1 1 0 0.751
2324 209 5 403 1 1 0 1 1 0 0.653
2325 209 5 404 1 2 0 0 1 0 0.799
2326 209 5 405 3 3 2 1 1 2 0.596
2327 209 5 406 3 3 1 1 1 1 0.713
2328 209 5 407 2 2 2 1 1 2 0.569
2329 209 5 408 0 0 3 1 1 3 0.487
2330 209 5 409 0 0 0 2 1 0 0.874
2331 209 5 410 1 1 2 1 1 2 0.653
2332 209 5 411 1 1 0 2 1 0 0.778
2333 209 5 412 0 0 2 1 1 2 0.728
2334 209 5 413 1 1 0 1 1 0 0.744
2335 209 5 414 3 3 3 2 1 3 0.499
2336 209 5 415 0 1 2 0 1 2 0.731
2337 209 5 416 3 3 1 1 1 1 0.746
2338 209 5 417 2 2 1 1 1 1 0.809
2339 209 5 418 2 2 0 2 1 0 1.105
2340 209 5 419 0 1 3 0 1 3 1.499
2341 209 5 420 1 1 1 1 1 1 0.687
2342 209 5 421 0 0 3 2 1 3 0.556
2343 209 5 422 1 1 1 1 1 1 0.825
2344 209 5 423 2 2 0 1 1 0 1.349
2345 209 5 424 3 3 2 2 1 2 0.762
2346 209 5 425 1 1 2 1 1 2 0.721
2347 209 5 426 3 1 0 0 1 0 0.84
2348 209 5 427 0 1 2 0 1 2 0.724
2349 209 5 428 1 1 2 1 1 2 0.508
2350 209 5 429 3 3 1 1 1 1 0.715
2351 209 5 430 1 2 3 0 1 3 0.507
2352 209 5 431 1 1 2 1 1 2 0.642
2353 209 5 432 3 3 1 2 1 1 0.761
2354 209 5 433 3 0 1 0 0 0 1.799
2355 209 5 434 1 0 3 0 1 3 0.564
2356 209 5 435 3 3 3 2 1 3 0.644
2357 209 5 436 1 1 1 1 1 1 0.814
2358 209 5 437 0 0 0 1 1 0 0.723
2359 209 5 438 0 0 1 1 1 1 0.898
2360 209 5 439 0 0 3 1 1 3 0.587
2361 209 5 440 1 2 3 0 0 0 1.088
2362 209 5 441 0 2 2 0 1 2 0.646
2363 209 5 442 0 0 3 2 1 3 0.485
2364 209 5 443 3 2 3 0 0 0 0.933
2365 209 5 444 3 3 3 2 1 3 0.468
2366 209 5 445 0 1 1 0 1 1 0.692
2367 209 5 446 3 2 2 0 1 2 0.629
2368 209 5 447 1 2 1 0 1 1 0.76
2369 209 5 448 3 0 3 0 1 3 0.591
2370 209 5 449 0 0 1 2 1 1 0.847
2371 209 5 450 0 0 0 2 1 0 1.078
2372 209 5 451 0 0 2 1 1 2 0.697
2373 209 5 452 2 2 0 2 1 0 0.942
2374 209 5 453 1 1 1 2 1 1 0.73
2375 209 5 454 3 3 0 2 1 0 0.861
2376 209 5 455 2 0 2 0 1 2 0.76
2377 209 5 456 0 1 2 0 1 2 0.542
2378 209 5 457 0 0 1 2 0 0 0.832
2379 209 5 458 0 1 0 0 1 0 0.719
2380 209 5 459 2 3 1 0 1 1 0.766
2381 209 5 460 2 2 0 2 1 0 0.833
2382 209 5 461 3 0 0 0 1 0 0.747
2383 209 5 462 1 1 2 1 1 2 0.658
2384 209 5 463 3 2 1 0 1 1 0.676
2385 209 5 464 1 1 1 1 1 1 0.654
2386 209 5 465 1 1 1 2 1 1 0.691
2387 209 5 466 2 1 2 0 1 2 0.62
2388 209 5 467 1 2 3 0 1 3 1.047
2389 209 5 468 2 2 2 2 1 2 0.614
2390 209 5 469 3 3 3 1 1 3 0.53
2391 209 5 470 1 1 3 1 1 3 0.569
2392 209 5 471 1 1 1 1 1 1 0.743
2393 209 5 472 2 2 2 1 1 2 0.558
2394 209 5 473 3 3 0 2 1 0 0.999
2395 209 5 474 0 1 3 0 1 3 0.885
2396 209 5 475 1 1 3 2 1 3 0.41
2397 209 5 476 0 2 0 0 1 0 0.909
2398 209 5 477 3 2 1 0 0 0 1.326
2399 209 5 478 1 1 3 1 1 3 0.652
2400 209 5 479 1 1 1 2 1 1 0.826
2401 213 0 0 3 3 1 2 1 1 4.282
2402 213 0 1 0 0 3 2 1 3 0.926
2403 213 0 2 1 1 2 2 1 2 3.146
2404 213 0 3 2 2 1 1 0 3 3.17
2405 213 0 4 3 3 1 1 1 1 2.014
2406 213 0 5 1 1 1 1 1 1 1.087
2407 213 0 6 0 0 3 2 1 3 1.222
2408 213 0 7 2 2 2 1 1 2 1.203
2409 213 0 8 1 2 2 0 0 3 2.498
2410 213 0 9 1 1 3 2 1 3 0.953
2411 213 0 10 3 3 2 2 1 2 0.964
2412 213 0 11 3 3 1 2 1 1 1.262
2413 213 0 12 1 1 1 2 1 1 1.07
2414 213 0 13 1 2 3 0 1 3 0.897
2415 213 0 14 3 3 1 1 1 1 0.907
2416 213 0 15 1 1 0 1 1 0 0.948
2417 213 0 16 2 0 2 0 1 2 0.876
2418 213 0 17 1 1 1 2 1 1 0.874
2419 213 0 18 0 0 1 2 1 1 0.807
2420 213 0 19 3 3 2 2 1 2 0.746
2421 213 0 20 0 2 1 0 0 2 1.961
2422 213 0 21 1 1 3 1 1 3 0.64
2423 213 0 22 3 3 2 1 1 2 0.802
2424 213 0 23 1 1 0 1 1 0 0.847
2425 213 0 24 1 1 2 2 1 2 0.878
2426 213 0 25 3 1 2 0 1 2 0.824
2427 213 0 26 0 1 3 0 1 3 0.836
2428 213 0 27 1 2 0 0 1 0 0.911
2429 213 0 28 2 2 3 2 1 3 1.051
2430 213 0 29 2 2 0 1 1 0 0.943
2431 213 0 30 2 2 0 1 1 0 0.743
2432 213 0 31 3 3 2 1 1 2 0.79
2433 213 0 32 2 2 1 1 1 1 0.659
2434 213 0 33 2 3 2 0 1 2 0.741
2435 213 0 34 3 3 1 1 1 1 0.644
2436 213 0 35 2 2 2 1 1 2 0.63
2437 213 0 36 0 1 0 0 1 0 0.697
2438 213 0 37 3 3 1 2 1 1 0.623
2439 213 0 38 0 0 3 1 1 3 0.754
2440 213 0 39 2 0 3 0 1 3 0.657
2441 213 0 40 1 2 3 0 1 3 1.49
2442 213 0 41 1 1 2 1 1 2 0.679
2443 213 0 42 2 3 3 0 1 3 0.632
2444 213 0 43 1 2 3 0 0 2 1.739
2445 213 0 44 0 0 0 2 1 0 0.75
2446 213 0 45 2 2 0 1 0 3 0.892
2447 213 0 46 1 1 2 2 1 2 0.637
2448 213 0 47 2 2 2 2 1 2 1.907
2449 213 0 48 3 3 3 2 1 3 0.62
2450 213 0 49 0 0 2 2 1 2 0.755
2451 213 0 50 3 2 2 0 1 2 0.785
2452 213 0 51 2 2 3 1 1 3 0.766
2453 213 0 52 1 2 3 0 1 3 0.828
2454 213 0 53 2 0 1 0 1 1 0.936
2455 213 0 54 1 1 2 2 1 2 0.756
2456 213 0 55 0 0 3 2 1 3 0.662
2457 213 0 56 3 3 0 2 1 0 0.811
2458 213 0 57 0 0 3 2 1 3 0.699
2459 213 0 58 3 3 1 2 1 1 0.735
2460 213 0 59 1 1 2 1 1 2 0.895
2461 213 0 60 1 1 2 1 1 2 0.569
2462 213 0 61 2 2 0 1 1 0 0.878
2463 213 0 62 1 1 1 1 1 1 0.664
2464 213 0 63 3 3 2 2 1 2 0.669
2465 213 0 64 2 2 3 2 1 3 0.93
2466 213 0 65 3 1 0 0 1 0 0.763
2467 213 0 66 2 2 2 2 1 2 0.669
2468 213 0 67 2 2 3 1 1 3 0.526
2469 213 0 68 1 1 3 2 1 3 0.857
2470 213 0 69 3 3 2 2 1 2 0.615
2471 213 0 70 3 2 2 0 1 2 0.699
2472 213 0 71 1 2 2 0 1 2 0.764
2473 213 0 72 1 1 0 1 1 0 0.811
2474 213 0 73 3 3 1 2 1 1 0.651
2475 213 0 74 3 3 3 1 1 3 0.717
2476 213 0 75 0 0 3 2 1 3 0.753
2477 213 0 76 2 0 3 0 0 2 1.759
2478 213 0 77 3 3 0 2 1 0 0.849
2479 213 0 78 2 2 3 1 1 3 0.828
2480 213 0 79 2 2 0 1 1 0 0.872
2481 213 1 80 2 2 0 1 1 0 0.925
2482 213 1 81 2 2 0 1 1 0 0.885
2483 213 1 82 1 1 3 2 1 3 0.659
2484 213 1 83 0 0 1 2 1 1 0.744
2485 213 1 84 2 2 3 1 1 3 0.663
2486 213 1 85 3 3 2 2 1 2 0.669
2487 213 1 86 1 0 1 0 1 1 0.702
2488 213 1 87 2 1 3 0 1 3 0.783
2489 213 1 88 2 2 1 1 1 1 0.732
2490 213 1 89 3 3 3 1 1 3 0.603
2491 213 1 90 1 1 1 1 1 1 0.687
2492 213 1 91 2 2 2 2 1 2 0.675
2493 213 1 92 0 1 3 0 1 3 0.677
2494 213 1 93 1 1 2 1 1 2 0.663
2495 213 1 94 2 2 0 1 1 0 0.822
2496 213 1 95 3 1 1 0 1 1 0.739
2497 213 1 96 3 3 1 1 1 1 0.594
2498 213 1 97 1 2 1 0 1 1 0.614
2499 213 1 98 3 3 3 1 1 3 0.634
2500 213 1 99 0 2 1 0 0 2 3.117
2501 213 1 100 0 0 2 2 1 2 0.637
2502 213 1 101 3 3 2 1 1 2 0.592
2503 213 1 102 3 3 3 2 1 3 0.552
2504 213 1 103 0 1 1 0 1 1 0.638
2505 213 1 104 1 2 1 0 1 1 0.897
2506 213 1 105 0 2 1 0 1 1 0.874
2507 213 1 106 3 0 1 0 1 1 0.613
2508 213 1 107 1 1 2 2 1 2 0.636
2509 213 1 108 3 3 2 1 1 2 0.559
2510 213 1 109 1 1 2 1 1 2 1.012
2511 213 1 110 2 2 1 2 1 1 0.702
2512 213 1 111 0 1 2 0 1 2 0.542
2513 213 1 112 0 2 0 0 1 0 0.804
2514 213 1 113 2 2 1 1 1 1 0.641
2515 213 1 114 3 3 3 2 1 3 0.711
2516 213 1 115 1 2 0 0 0 1 1.096
2517 213 1 116 2 2 0 1 1 0 0.734
2518 213 1 117 1 1 3 1 1 3 0.717
2519 213 1 118 0 0 0 1 1 0 0.653
2520 213 1 119 2 2 2 1 1 2 0.847
2521 213 1 120 1 1 3 1 1 3 0.698
2522 213 1 121 0 0 2 2 1 2 0.783
2523 213 1 122 0 0 0 2 1 0 0.864
2524 213 1 123 3 3 2 1 1 2 0.683
2525 213 1 124 0 0 1 2 1 1 0.831
2526 213 1 125 3 3 1 2 1 1 0.782
2527 213 1 126 0 0 2 1 1 2 0.748
2528 213 1 127 0 0 1 1 1 1 0.683
2529 213 1 128 2 2 3 2 1 3 0.735
2530 213 1 129 0 0 3 2 1 3 0.787
2531 213 1 130 0 0 1 1 1 1 0.815
2532 213 1 131 1 2 1 0 1 1 0.859
2533 213 1 132 3 3 2 2 1 2 0.745
2534 213 1 133 1 2 1 0 1 1 0.792
2535 213 1 134 3 2 1 0 1 1 0.758
2536 213 1 135 1 1 3 2 1 3 0.84
2537 213 1 136 2 3 2 0 0 3 0.948
2538 213 1 137 3 3 0 2 1 0 0.85
2539 213 1 138 3 1 0 0 1 0 0.861
2540 213 1 139 0 1 0 0 1 0 0.824
2541 213 1 140 3 1 0 0 1 0 0.756
2542 213 1 141 3 3 2 2 1 2 0.742
2543 213 1 142 1 2 3 0 1 3 0.757
2544 213 1 143 0 1 3 0 1 3 0.74
2545 213 1 144 2 0 2 0 0 3 0.947
2546 213 1 145 0 1 3 0 1 3 0.799
2547 213 1 146 0 0 1 2 1 1 0.88
2548 213 1 147 3 0 3 0 1 3 0.778
2549 213 1 148 1 1 1 1 1 1 0.92
2550 213 1 149 0 0 2 2 1 2 0.788
2551 213 1 150 3 3 0 1 1 0 0.721
2552 213 1 151 2 2 0 2 0 3 0.885
2553 213 1 152 0 0 3 1 1 3 0.626
2554 213 1 153 2 3 1 0 1 1 0.709
2555 213 1 154 0 0 2 1 1 2 0.742
2556 213 1 155 0 0 1 2 1 1 0.792
2557 213 1 156 3 0 2 0 0 3 1.286
2558 213 1 157 0 0 1 1 1 1 0.693
2559 213 1 158 2 2 0 1 1 0 0.886
2560 213 1 159 3 1 1 0 1 1 0.736
2561 213 2 160 1 1 3 1 1 3 0.786
2562 213 2 161 0 1 1 0 1 1 0.638
2563 213 2 162 2 2 2 1 1 2 0.609
2564 213 2 163 3 3 3 2 1 3 0.617
2565 213 2 164 2 3 1 0 1 1 0.636
2566 213 2 165 0 0 2 2 1 2 0.562
2567 213 2 166 0 1 3 0 1 3 0.68
2568 213 2 167 3 3 1 1 1 1 0.552
2569 213 2 168 2 1 1 0 1 1 0.622
2570 213 2 169 3 0 2 0 1 2 0.561
2571 213 2 170 0 0 3 1 1 3 0.647
2572 213 2 171 1 0 3 0 1 3 0.857
2573 213 2 172 1 2 1 0 1 1 0.724
2574 213 2 173 1 1 0 2 1 0 0.76
2575 213 2 174 1 1 0 2 1 0 0.569
2576 213 2 175 3 3 0 1 1 0 0.574
2577 213 2 176 3 3 3 2 1 3 0.711
2578 213 2 177 2 2 3 1 1 3 0.727
2579 213 2 178 2 3 2 0 1 2 0.567
2580 213 2 179 0 0 0 2 1 0 0.64
2581 213 2 180 1 1 1 1 1 1 0.658
2582 213 2 181 3 3 3 2 1 3 0.616
2583 213 2 182 1 2 2 0 1 2 0.699
2584 213 2 183 3 0 3 0 1 3 0.62
2585 213 2 184 3 1 2 0 1 2 0.671
2586 213 2 185 1 1 0 1 1 0 0.673
2587 213 2 186 3 3 3 2 1 3 0.63
2588 213 2 187 1 1 1 1 1 1 0.761
2589 213 2 188 2 0 3 0 1 3 0.632
2590 213 2 189 2 2 3 1 1 3 0.683
2591 213 2 190 1 1 0 1 1 0 0.684
2592 213 2 191 0 0 0 1 1 0 0.669
2593 213 2 192 0 0 2 1 1 2 0.62
2594 213 2 193 0 0 1 1 1 1 0.655
2595 213 2 194 3 3 2 2 1 2 0.645
2596 213 2 195 3 0 3 0 1 3 0.584
2597 213 2 196 2 2 3 1 1 3 0.653
2598 213 2 197 0 0 3 1 1 3 0.671
2599 213 2 198 2 2 0 1 1 0 0.72
2600 213 2 199 1 1 0 2 1 0 0.675
2601 213 2 200 0 1 2 0 1 2 0.661
2602 213 2 201 3 3 0 2 1 0 0.634
2603 213 2 202 3 1 2 0 1 2 0.62
2604 213 2 203 0 0 2 2 1 2 0.659
2605 213 2 204 1 2 1 0 1 1 0.677
2606 213 2 205 3 3 0 1 1 0 0.662
2607 213 2 206 1 0 0 0 1 0 0.664
2608 213 2 207 2 3 1 0 1 1 0.618
2609 213 2 208 1 1 0 1 1 0 0.558
2610 213 2 209 2 2 2 2 1 2 0.68
2611 213 2 210 1 1 2 2 1 2 0.653
2612 213 2 211 2 2 0 1 1 0 0.639
2613 213 2 212 1 1 1 2 1 1 1.205
2614 213 2 213 2 2 2 1 1 2 0.596
2615 213 2 214 0 0 1 2 1 1 0.7
2616 213 2 215 2 2 3 2 1 3 0.735
2617 213 2 216 0 2 3 0 1 3 0.879
2618 213 2 217 1 2 2 0 1 2 0.873
2619 213 2 218 3 3 1 1 1 1 0.739
2620 213 2 219 3 3 3 1 1 3 0.627
2621 213 2 220 0 0 3 1 1 3 0.63
2622 213 2 221 2 0 0 0 1 0 0.777
2623 213 2 222 3 3 3 2 1 3 0.619
2624 213 2 223 1 1 0 1 1 0 0.686
2625 213 2 224 3 3 3 1 1 3 0.607
2626 213 2 225 3 3 0 1 1 0 1.043
2627 213 2 226 2 2 0 2 1 0 0.843
2628 213 2 227 0 2 0 0 1 0 0.742
2629 213 2 228 0 0 1 2 1 1 0.809
2630 213 2 229 3 3 3 1 1 3 0.566
2631 213 2 230 3 0 2 0 1 2 0.731
2632 213 2 231 2 3 1 0 0 2 1.675
2633 213 2 232 3 2 1 0 0 0 0.972
2634 213 2 233 2 2 0 1 1 0 0.726
2635 213 2 234 2 2 3 1 1 3 0.694
2636 213 2 235 0 0 3 1 1 3 0.631
2637 213 2 236 1 1 3 1 1 3 0.698
2638 213 2 237 1 1 2 2 1 2 0.655
2639 213 2 238 3 3 2 2 1 2 0.612
2640 213 2 239 2 2 0 1 1 0 0.68
2641 213 3 240 3 3 3 2 1 3 0.567
2642 213 3 241 3 3 1 1 1 1 0.652
2643 213 3 242 2 2 0 2 0 3 1.01
2644 213 3 243 3 3 2 2 1 2 0.606
2645 213 3 244 0 0 3 1 1 3 0.674
2646 213 3 245 3 0 3 0 1 3 0.676
2647 213 3 246 3 3 3 2 1 3 0.633
2648 213 3 247 3 3 2 2 1 2 0.608
2649 213 3 248 2 2 3 2 1 3 0.663
2650 213 3 249 1 1 0 2 1 0 0.652
2651 213 3 250 2 2 3 2 1 3 0.642
2652 213 3 251 3 2 2 0 0 3 2.773
2653 213 3 252 0 0 0 2 0 3 0.882
2654 213 3 253 2 2 3 1 1 3 0.704
2655 213 3 254 0 0 2 1 1 2 0.736
2656 213 3 255 3 3 2 1 1 2 0.575
2657 213 3 256 3 3 3 2 1 3 0.568
2658 213 3 257 0 0 0 2 1 0 0.753
2659 213 3 258 1 1 0 1 1 0 0.608
2660 213 3 259 0 0 2 1 1 2 0.595
2661 213 3 260 2 3 2 0 1 2 0.551
2662 213 3 261 2 2 3 1 1 3 0.621
2663 213 3 262 0 0 1 2 1 1 0.74
2664 213 3 263 2 2 0 1 1 0 0.723
2665 213 3 264 1 1 3 1 1 3 0.627
2666 213 3 265 2 2 2 2 1 2 0.553
2667 213 3 266 0 1 1 0 1 1 0.655
2668 213 3 267 0 0 3 1 1 3 0.577
2669 213 3 268 3 3 0 1 1 0 0.582
2670 213 3 269 1 1 0 1 1 0 0.635
2671 213 3 270 1 1 0 2 1 0 0.674
2672 213 3 271 0 0 0 1 1 0 0.643
2673 213 3 272 1 1 2 2 1 2 0.634
2674 213 3 273 3 3 1 1 1 1 0.652
2675 213 3 274 1 1 2 2 1 2 0.578
2676 213 3 275 0 0 2 1 1 2 0.599
2677 213 3 276 3 3 3 1 1 3 0.555
2678 213 3 277 3 3 0 1 1 0 0.992
2679 213 3 278 2 2 2 1 1 2 0.567
2680 213 3 279 1 1 3 2 1 3 0.591
2681 213 3 280 1 1 0 2 1 0 0.743
2682 213 3 281 3 3 1 1 1 1 0.598
2683 213 3 282 3 3 0 1 1 0 0.731
2684 213 3 283 2 2 0 1 1 0 0.763
2685 213 3 284 2 2 0 1 1 0 0.617
2686 213 3 285 1 1 0 1 1 0 0.557
2687 213 3 286 3 0 3 0 1 3 1.154
2688 213 3 287 2 1 2 0 1 2 0.611
2689 213 3 288 2 2 3 2 1 3 0.65
2690 213 3 289 0 0 2 1 1 2 0.572
2691 213 3 290 2 2 1 1 1 1 0.593
2692 213 3 291 2 2 3 2 1 3 0.536
2693 213 3 292 3 3 1 1 1 1 0.543
2694 213 3 293 3 3 0 1 1 0 0.533
2695 213 3 294 0 1 3 0 1 3 0.683
2696 213 3 295 0 2 3 0 1 3 0.525
2697 213 3 296 2 2 2 2 1 2 0.631
2698 213 3 297 3 3 2 2 1 2 0.596
2699 213 3 298 0 0 2 1 1 2 0.68
2700 213 3 299 2 2 2 2 1 2 0.622
2701 213 3 300 0 1 2 0 1 2 0.561
2702 213 3 301 0 0 2 1 1 2 0.614
2703 213 3 302 3 3 1 1 1 1 0.699
2704 213 3 303 1 2 0 0 1 0 0.731
2705 213 3 304 2 1 3 0 1 3 0.618
2706 213 3 305 2 2 3 2 1 3 0.674
2707 213 3 306 2 2 0 1 1 0 0.723
2708 213 3 307 3 3 2 1 1 2 0.547
2709 213 3 308 0 0 3 1 1 3 0.618
2710 213 3 309 1 1 2 2 1 2 0.688
2711 213 3 310 1 1 0 2 1 0 0.757
2712 213 3 311 2 0 3 0 1 3 0.627
2713 213 3 312 3 3 0 2 1 0 0.682
2714 213 3 313 1 2 3 0 0 2 1.883
2715 213 3 314 0 0 0 2 1 0 0.728
2716 213 3 315 1 0 2 0 1 2 0.696
2717 213 3 316 2 2 0 1 1 0 0.745
2718 213 3 317 3 3 1 1 1 1 0.984
2719 213 3 318 1 2 0 0 1 0 0.67
2720 213 3 319 0 0 3 1 1 3 0.672
2721 213 4 320 0 0 1 2 1 1 0.699
2722 213 4 321 3 3 2 1 1 2 0.603
2723 213 4 322 1 1 3 1 1 3 0.639
2724 213 4 323 3 0 0 0 1 0 0.642
2725 213 4 324 0 1 3 0 1 3 0.645
2726 213 4 325 3 3 0 1 1 0 0.615
2727 213 4 326 1 1 3 2 1 3 0.735
2728 213 4 327 1 0 3 0 1 3 0.542
2729 213 4 328 3 3 0 1 1 0 0.548
2730 213 4 329 0 0 0 2 1 0 0.621
2731 213 4 330 2 2 1 1 1 1 0.785
2732 213 4 331 1 2 2 0 1 2 0.702
2733 213 4 332 1 1 0 2 1 0 0.658
2734 213 4 333 3 0 3 0 1 3 0.708
2735 213 4 334 3 1 1 0 1 1 0.756
2736 213 4 335 1 1 2 2 1 2 0.678
2737 213 4 336 2 1 3 0 1 3 0.695
2738 213 4 337 0 0 1 1 1 1 0.712
2739 213 4 338 3 0 3 0 1 3 0.681
2740 213 4 339 1 1 0 2 1 0 0.702
2741 213 4 340 1 0 0 0 1 0 0.734
2742 213 4 341 2 2 0 2 0 3 1.201
2743 213 4 342 0 2 2 0 1 2 0.787
2744 213 4 343 2 0 2 0 1 2 0.624
2745 213 4 344 3 3 3 1 1 3 0.723
2746 213 4 345 1 1 3 2 1 3 0.823
2747 213 4 346 0 1 2 0 1 2 0.691
2748 213 4 347 2 0 1 0 1 1 0.771
2749 213 4 348 3 3 1 2 1 1 0.709
2750 213 4 349 3 3 1 2 1 1 0.633
2751 213 4 350 3 3 2 2 1 2 0.575
2752 213 4 351 1 0 2 0 1 2 0.676
2753 213 4 352 0 0 1 2 1 1 0.681
2754 213 4 353 2 2 0 1 1 0 0.778
2755 213 4 354 2 2 0 1 1 0 0.728
2756 213 4 355 2 1 0 0 1 0 0.744
2757 213 4 356 2 3 3 0 1 3 0.695
2758 213 4 357 0 0 0 2 1 0 0.811
2759 213 4 358 0 2 0 0 0 1 1.256
2760 213 4 359 2 2 3 1 1 3 0.728
2761 213 4 360 3 3 1 1 1 1 0.583
2762 213 4 361 0 0 2 1 1 2 0.62
2763 213 4 362 3 3 1 1 1 1 0.607
2764 213 4 363 0 1 3 0 1 3 0.627
2765 213 4 364 0 0 1 1 1 1 0.566
2766 213 4 365 0 1 2 0 1 2 0.619
2767 213 4 366 3 2 2 0 0 3 0.847
2768 213 4 367 3 2 2 0 1 2 0.718
2769 213 4 368 1 1 1 2 1 1 0.689
2770 213 4 369 3 3 3 2 1 3 0.629
2771 213 4 370 0 0 2 1 1 2 0.585
2772 213 4 371 0 2 0 0 1 0 0.749
2773 213 4 372 2 1 1 0 1 1 0.796
2774 213 4 373 3 3 3 1 1 3 0.617
2775 213 4 374 2 2 2 2 1 2 0.688
2776 213 4 375 3 3 2 2 1 2 0.613
2777 213 4 376 3 3 3 1 1 3 0.648
2778 213 4 377 2 2 0 1 1 0 0.731
2779 213 4 378 2 3 3 0 1 3 0.65
2780 213 4 379 0 0 0 2 1 0 0.688
2781 213 4 380 3 3 3 1 1 3 0.593
2782 213 4 381 1 1 3 2 1 3 0.746
2783 213 4 382 3 3 1 1 1 1 0.553
2784 213 4 383 1 1 2 2 1 2 0.61
2785 213 4 384 0 2 1 0 1 1 0.71
2786 213 4 385 3 3 3 2 1 3 0.634
2787 213 4 386 1 1 2 1 1 2 0.556
2788 213 4 387 1 1 2 2 1 2 0.613
2789 213 4 388 0 2 0 0 1 0 0.873
2790 213 4 389 1 1 0 2 1 0 0.695
2791 213 4 390 1 1 3 2 1 3 0.796
2792 213 4 391 0 1 3 0 1 3 0.553
2793 213 4 392 0 0 0 2 1 0 0.69
2794 213 4 393 3 1 1 0 1 1 0.643
2795 213 4 394 3 3 3 2 1 3 0.682
2796 213 4 395 3 3 2 2 1 2 0.542
2797 213 4 396 3 3 3 2 1 3 0.631
2798 213 4 397 3 3 0 2 1 0 0.67
2799 213 4 398 0 1 0 0 1 0 0.72
2800 213 4 399 2 2 2 2 1 2 0.739
2801 213 5 400 2 2 2 1 1 2 0.621
2802 213 5 401 2 2 1 2 1 1 0.58
2803 213 5 402 0 0 3 1 1 3 0.702
2804 213 5 403 1 1 3 2 1 3 0.626
2805 213 5 404 2 2 3 1 1 3 0.677
2806 213 5 405 2 2 3 2 1 3 0.666
2807 213 5 406 1 2 2 0 0 3 1.835
2808 213 5 407 1 1 2 2 1 2 0.842
2809 213 5 408 2 2 2 2 1 2 0.793
2810 213 5 409 2 2 0 2 1 0 0.714
2811 213 5 410 2 2 1 2 1 1 0.734
2812 213 5 411 1 1 3 2 1 3 0.833
2813 213 5 412 2 3 0 0 1 0 0.637
2814 213 5 413 2 2 3 2 1 3 0.595
2815 213 5 414 3 3 1 1 1 1 0.632
2816 213 5 415 0 0 2 1 1 2 0.667
2817 213 5 416 1 1 1 2 1 1 0.784
2818 213 5 417 3 3 2 1 1 2 0.557
2819 213 5 418 3 3 3 1 1 3 0.595
2820 213 5 419 3 3 1 2 1 1 0.603
2821 213 5 420 3 3 2 1 1 2 0.527
2822 213 5 421 3 0 2 0 1 2 0.646
2823 213 5 422 3 2 1 0 1 1 0.712
2824 213 5 423 3 0 0 0 1 0 0.633
2825 213 5 424 2 2 3 1 1 3 0.587
2826 213 5 425 3 1 3 0 1 3 0.56
2827 213 5 426 3 0 2 0 1 2 0.597
2828 213 5 427 2 3 2 0 1 2 0.521
2829 213 5 428 1 2 2 0 1 2 0.624
2830 213 5 429 1 1 3 2 1 3 0.599
2831 213 5 430 3 1 1 0 1 1 0.619
2832 213 5 431 3 3 1 2 1 1 0.658
2833 213 5 432 1 1 3 2 1 3 0.839
2834 213 5 433 3 2 0 0 1 0 0.771
2835 213 5 434 2 2 0 1 1 0 0.625
2836 213 5 435 0 1 2 0 1 2 0.708
2837 213 5 436 1 0 2 0 1 2 0.629
2838 213 5 437 2 2 2 2 1 2 0.603
2839 213 5 438 2 2 3 1 1 3 0.559
2840 213 5 439 3 0 0 0 1 0 0.547
2841 213 5 440 2 1 1 0 0 2 1.05
2842 213 5 441 3 3 3 2 1 3 0.821
2843 213 5 442 0 2 0 0 1 0 0.592
2844 213 5 443 0 0 1 1 1 1 0.581
2845 213 5 444 0 0 2 1 1 2 0.57
2846 213 5 445 1 0 0 0 1 0 0.67
2847 213 5 446 3 3 3 2 1 3 0.627
2848 213 5 447 0 1 1 0 1 1 0.63
2849 213 5 448 3 3 0 2 1 0 0.733
2850 213 5 449 3 3 0 2 1 0 0.735
2851 213 5 450 3 3 2 2 1 2 0.674
2852 213 5 451 2 2 2 1 1 2 0.705
2853 213 5 452 2 2 3 2 1 3 0.709
2854 213 5 453 3 0 1 0 1 1 0.613
2855 213 5 454 1 1 3 2 1 3 0.637
2856 213 5 455 2 1 0 0 1 0 0.688
2857 213 5 456 2 2 0 2 1 0 0.772
2858 213 5 457 2 2 0 1 1 0 0.69
2859 213 5 458 1 0 2 0 1 2 0.594
2860 213 5 459 3 3 2 1 1 2 0.839
2861 213 5 460 1 1 2 2 1 2 0.566
2862 213 5 461 2 1 0 0 1 0 0.62
2863 213 5 462 2 1 2 0 1 2 0.559
2864 213 5 463 2 2 0 1 0 3 1.044
2865 213 5 464 0 0 1 2 1 1 0.784
2866 213 5 465 1 1 1 2 1 1 0.64
2867 213 5 466 0 2 0 0 1 0 0.723
2868 213 5 467 2 2 1 2 1 1 0.678
2869 213 5 468 3 3 0 2 0 3 1.916
2870 213 5 469 2 0 1 0 1 1 1.092
2871 213 5 470 2 3 1 0 1 1 0.743
2872 213 5 471 3 1 3 0 1 3 0.646
2873 213 5 472 1 1 3 1 1 3 0.6
2874 213 5 473 2 2 1 2 1 1 0.688
2875 213 5 474 2 2 2 2 1 2 0.628
2876 213 5 475 1 1 3 1 1 3 0.536
2877 213 5 476 0 0 0 2 1 0 0.625
2878 213 5 477 2 2 2 2 1 2 0.616
2879 213 5 478 1 1 2 1 1 2 0.54
2880 213 5 479 0 0 2 2 1 2 0.518
2881 215 0 0 0 0 1 2 0 0 2.068
2882 215 0 1 0 0 1 2 1 1 1.624
2883 215 0 2 2 0 3 0 1 3 1.284
2884 215 0 3 1 2 3 0 1 3 1.005
2885 215 0 4 1 0 1 0 0 2 1.088
2886 215 0 5 3 3 1 1 0 0 1.139
2887 215 0 6 0 0 3 2 0 0 1.224
2888 215 0 7 2 2 2 1 1 2 1.126
2889 215 0 8 1 1 3 2 1 3 0.488
2890 215 0 9 3 3 3 1 0 0 0.829
2891 215 0 10 0 2 0 0 0 2 1.322
2892 215 0 11 0 0 0 1 1 0 0.757
2893 215 0 12 1 1 2 1 0 1 0.928
2894 215 0 13 3 3 1 2 0 2 1.053
2895 215 0 14 0 0 3 1 1 3 0.881
2896 215 0 15 3 2 2 0 0 0 1.336
2897 215 0 16 2 2 1 1 0 0 1.411
2898 215 0 17 2 2 3 1 0 2 1.099
2899 215 0 18 0 2 2 0 0 3 1.278
2900 215 0 19 1 1 0 2 1 0 1.79
2901 215 0 20 2 2 1 1 0 0 1.877
2902 215 0 21 2 2 2 1 1 2 0.875
2903 215 0 22 3 3 1 2 1 1 1.206
2904 215 0 23 0 0 1 1 1 1 1.058
2905 215 0 24 2 2 0 1 1 0 0.723
2906 215 0 25 0 0 3 2 1 3 0.995
2907 215 0 26 0 0 3 2 1 3 0.426
2908 215 0 27 1 1 0 1 1 0 0.769
2909 215 0 28 0 0 2 1 1 2 0.796
2910 215 0 29 0 2 2 0 0 3 1.366
2911 215 0 30 0 0 2 1 1 2 0.735
2912 215 0 31 1 1 3 1 1 3 0.748
2913 215 0 32 3 3 3 2 1 3 0.443
2914 215 0 33 1 1 0 2 1 0 0.645
2915 215 0 34 2 0 0 0 0 2 1.029
2916 215 0 35 1 1 3 2 1 3 0.542
2917 215 0 36 2 1 1 0 1 1 1.857
2918 215 0 37 2 3 1 0 0 3 1.094
2919 215 0 38 2 3 1 0 1 1 1.353
2920 215 0 39 1 1 2 1 1 2 0.879
2921 215 0 40 0 0 0 1 1 0 0.646
2922 215 0 41 2 2 3 2 1 3 1.13
2923 215 0 42 1 2 3 0 0 0 1.16
2924 215 0 43 0 2 1 0 0 3 1.096
2925 215 0 44 3 1 1 0 0 0 1.037
2926 215 0 45 1 1 3 1 1 3 0.466
2927 215 0 46 3 3 2 2 1 2 0.924
2928 215 0 47 2 2 2 1 1 2 0.497
2929 215 0 48 2 2 1 2 0 0 1.018
2930 215 0 49 0 0 2 2 1 2 0.675
2931 215 0 50 0 0 3 1 1 3 0.386
2932 215 0 51 2 2 2 1 1 2 1.13
2933 215 0 52 2 2 3 1 1 3 0.425
2934 215 0 53 0 0 3 2 0 0 0.772
2935 215 0 54 3 3 1 1 1 1 0.882
2936 215 0 55 1 2 0 0 0 2 1.433
2937 215 0 56 1 1 0 2 1 0 0.82
2938 215 0 57 3 3 0 1 1 0 0.397
2939 215 0 58 2 1 1 0 0 0 0.949
2940 215 0 59 0 0 1 1 1 1 0.701
2941 215 0 60 1 2 3 0 0 1 0.987
2942 215 0 61 1 1 0 2 1 0 0.453
2943 215 0 62 0 1 2 0 0 0 0.747
2944 215 0 63 1 1 3 2 1 3 0.719
2945 215 0 64 2 2 3 2 1 3 1.039
2946 215 0 65 0 0 2 2 1 2 0.996
2947 215 0 66 1 1 3 2 1 3 0.395
2948 215 0 67 1 2 3 0 0 0 0.835
2949 215 0 68 3 3 2 1 1 2 0.623
2950 215 0 69 3 3 3 2 1 3 0.451
2951 215 0 70 1 2 3 0 0 0 0.841
2952 215 0 71 3 3 1 2 1 1 0.777
2953 215 0 72 2 2 3 2 0 0 0.695
2954 215 0 73 1 1 0 1 1 0 0.441
2955 215 0 74 0 0 1 1 1 1 0.896
2956 215 0 75 3 3 0 1 1 0 0.423
2957 215 0 76 2 2 0 2 1 0 0.45
2958 215 0 77 0 0 2 2 1 2 0.812
2959 215 0 78 3 3 1 1 1 1 0.806
2960 215 0 79 1 0 3 0 0 2 1.296
2961 215 1 80 0 0 2 1 1 2 0.911
2962 215 1 81 1 0 2 0 0 0 0.789
2963 215 1 82 1 1 2 2 1 2 0.919
2964 215 1 83 2 1 3 0 0 1 1.069
2965 215 1 84 1 2 1 0 0 3 0.864
2966 215 1 85 2 0 1 0 0 0 0.572
2967 215 1 86 2 2 2 1 1 2 0.818
2968 215 1 87 1 1 1 2 1 1 0.847
2969 215 1 88 2 2 0 1 1 0 0.984
2970 215 1 89 1 1 3 2 1 3 1.582
2971 215 1 90 0 0 0 1 1 0 0.828
2972 215 1 91 3 3 0 2 0 3 1.481
2973 215 1 92 3 3 2 1 1 2 0.654
2974 215 1 93 1 2 3 0 0 0 0.717
2975 215 1 94 0 0 2 2 1 2 0.689
2976 216 0 0 2 3 3 0 1 3 1.815
2977 215 1 95 1 1 2 2 1 2 0.386
2978 216 0 1 0 1 0 0 1 0 1.19
2979 215 1 96 1 1 3 2 1 3 0.415
2980 215 1 97 3 3 2 2 1 2 0.522
2981 216 0 2 2 2 1 1 1 1 1.124
2982 215 1 98 3 3 0 1 1 0 0.574
2983 216 0 3 0 0 0 2 1 0 1
2984 215 1 99 2 2 0 1 1 0 0.464
2985 216 0 4 2 2 1 2 1 1 0.936
2986 215 1 100 1 1 0 2 1 0 0.378
2987 216 0 5 2 2 3 1 1 3 0.863
2988 215 1 101 1 1 1 2 1 1 0.518
2989 216 0 6 3 0 1 0 1 1 0.905
2990 215 1 102 1 1 2 2 1 2 1.614
2991 216 0 7 2 0 1 0 1 1 0.441
2992 215 1 103 3 0 2 0 0 0 0.571
2993 215 1 104 1 1 3 2 1 3 0.436
2994 216 0 8 3 2 0 0 1 0 2.377
2995 215 1 105 2 2 2 1 1 2 0.651
2996 216 0 9 1 1 1 2 0 2 1.753
2997 215 1 106 2 1 1 0 0 0 1.211
2998 216 0 10 2 2 3 2 0 2 1.208
2999 215 1 107 2 2 1 1 1 1 1.098
3000 216 0 11 1 2 2 0 1 2 0.768
3001 215 1 108 2 2 1 1 1 1 0.522
3002 216 0 12 3 3 1 1 1 1 1.013
3003 215 1 109 1 1 1 2 1 1 0.433
3004 216 0 13 3 3 2 1 1 2 0.834
3005 215 1 110 1 2 1 0 0 3 0.792
3006 216 0 14 3 3 2 1 1 2 0.412
3007 215 1 111 3 2 0 0 1 0 0.822
3008 216 0 15 1 1 0 2 1 0 1.417
3009 215 1 112 2 3 1 0 1 1 0.815
3010 216 0 16 1 0 3 0 1 3 0.934
3011 215 1 113 0 0 2 2 1 2 0.828
3012 216 0 17 1 1 1 1 0 2 0.637
3013 215 1 114 1 1 1 1 1 1 0.79
3014 216 0 18 1 2 2 0 0 1 1.042
3015 215 1 115 0 0 0 2 0 1 0.755
3016 215 1 116 0 0 2 2 1 2 0.486
3017 216 0 19 0 0 2 2 1 2 0.892
3018 216 0 20 3 2 2 0 1 2 0.596
3019 215 1 117 3 0 1 0 0 0 0.955
3020 215 1 118 2 2 2 1 1 2 0.707
3021 216 0 21 0 0 3 1 1 3 1.064
3022 215 1 119 2 3 0 0 0 2 0.689
3023 216 0 22 2 2 3 2 0 2 0.974
3024 215 1 120 3 2 1 0 0 0 0.514
3025 216 0 23 3 3 3 1 1 3 0.975
3026 215 1 121 2 3 3 0 0 0 0.73
3027 216 0 24 2 2 0 1 0 2 0.581
3028 215 1 122 2 2 1 2 1 1 0.91
3029 216 0 25 0 0 2 1 1 2 0.844
3030 215 1 123 2 1 2 0 0 3 0.708
3031 216 0 26 3 3 1 2 0 3 0.874
3032 215 1 124 3 3 2 1 1 2 0.549
3033 216 0 27 0 0 1 2 1 1 1.01
3034 215 1 125 1 1 3 2 1 3 0.507
3035 216 0 28 2 1 3 0 1 3 0.999
3036 215 1 126 0 0 1 1 1 1 0.768
3037 216 0 29 0 0 2 1 1 2 0.916
3038 215 1 127 0 0 0 1 1 0 0.667
3039 216 0 30 0 0 3 1 1 3 0.699
3040 215 1 128 0 0 0 2 1 0 0.684
3041 216 0 31 3 3 3 2 0 2 1.702
3042 215 1 129 3 1 3 0 1 3 0.698
3043 215 1 130 0 0 2 1 1 2 0.471
3044 216 0 32 2 2 0 1 1 0 0.997
3045 216 0 33 1 1 3 2 0 0 0.557
3046 215 1 131 0 0 2 1 1 2 0.605
3047 216 0 34 0 1 3 0 1 3 0.845
3048 215 1 132 3 0 1 0 0 0 0.862
3049 215 1 133 2 2 3 1 1 3 0.473
3050 216 0 35 1 0 2 0 1 2 0.76
3051 215 1 134 1 1 2 2 1 2 0.706
3052 216 0 36 0 0 0 1 1 0 0.989
3053 215 1 135 1 2 0 0 0 3 0.656
3054 216 0 37 1 2 0 0 0 1 2.41
3055 215 1 136 0 0 3 1 1 3 0.402
3056 216 0 38 1 0 0 0 0 1 0.816
3057 215 1 137 0 0 3 1 1 3 0.459
3058 216 0 39 3 2 2 0 1 2 0.823
3059 215 1 138 0 0 1 1 1 1 0.785
3060 215 1 139 0 0 3 2 1 3 0.415
3061 216 0 40 0 0 0 2 1 0 0.854
3062 215 1 140 2 2 2 1 0 3 0.807
3063 216 0 41 2 2 0 2 1 0 1.275
3064 215 1 141 0 0 3 1 1 3 0.388
3065 216 0 42 0 0 2 1 1 2 0.638
3066 215 1 142 3 3 3 2 1 3 0.4
3067 216 0 43 0 0 1 1 1 1 1.047
3068 215 1 143 1 0 3 0 0 0 0.809
3069 216 0 44 2 2 1 1 1 1 0.602
3070 215 1 144 0 0 1 2 0 3 0.698
3071 216 0 45 3 3 2 1 1 2 0.821
3072 215 1 145 1 0 2 0 0 3 0.363
3073 216 0 46 3 3 0 1 1 0 0.776
3074 215 1 146 3 3 2 2 1 2 0.588
3075 216 0 47 0 0 3 1 1 3 0.764
3076 215 1 147 2 2 3 1 0 1 1.086
3077 215 1 148 2 1 0 0 1 0 0.449
3078 216 0 48 0 1 2 0 0 3 2.89
3079 215 1 149 3 0 3 0 0 2 0.52
3080 216 0 49 0 2 2 0 1 2 0.774
3081 215 1 150 0 0 3 2 1 3 0.483
3082 216 0 50 0 1 1 0 0 2 0.915
3083 215 1 151 0 0 0 1 1 0 0.617
3084 216 0 51 1 0 3 0 1 3 0.758
3085 215 1 152 1 2 2 0 1 2 0.457
3086 216 0 52 2 2 2 1 1 2 0.5
3087 215 1 153 3 2 0 0 1 0 0.415
3088 216 0 53 2 2 2 2 1 2 0.27
3089 215 1 154 2 2 1 2 0 0 0.587
3090 215 1 155 2 2 0 1 1 0 0.496
3091 216 0 54 0 1 2 0 0 1 1.197
3092 215 1 156 0 0 1 2 1 1 0.585
3093 216 0 55 1 1 0 1 1 0 0.959
3094 215 1 157 3 3 1 2 1 1 0.589
3095 216 0 56 3 2 0 0 0 3 1.733
3096 215 1 158 1 1 1 1 1 1 0.399
