datID sessionID block trial WordInt ColorInt TrueInt Cong Correct Response rt
1 228 0 0 0 1 3 0 0 1 1.356
2 228 0 1 1 2 2 0 1 2 0.922
3 228 0 2 1 1 3 2 1 3 0.727
4 228 0 3 3 2 2 0 0 0 1.157
5 228 0 4 0 0 1 2 1 1 0.748
6 228 0 5 3 3 2 1 1 2 0.749
7 228 0 6 1 0 1 0 1 1 1.518
8 228 0 7 3 3 2 2 1 2 0.661
9 228 0 8 2 0 3 0 1 3 0.489
10 228 0 9 2 2 1 2 1 1 1.205
11 228 0 10 3 3 2 2 1 2 0.504
12 228 0 11 0 1 0 0 1 0 0.657
13 228 0 12 2 1 3 0 1 3 0.484
14 228 0 13 0 0 2 1 1 2 0.622
15 228 0 14 2 3 2 0 1 2 0.419
16 228 0 15 2 2 0 1 1 0 0.463
17 228 0 16 0 0 3 1 1 3 0.506
18 228 0 17 0 0 0 2 1 0 0.965
19 228 0 18 0 0 2 2 1 2 0.704
20 228 0 19 0 0 0 2 1 0 0.501
21 228 0 20 3 3 2 2 1 2 0.672
22 228 0 21 2 1 2 0 0 1 1.796
23 228 0 22 1 1 0 1 1 0 0.45
24 228 0 23 3 3 2 1 1 2 0.445
25 228 0 24 3 0 1 0 0 0 0.456
26 228 0 25 3 3 3 1 1 3 0.502
27 228 0 26 2 2 0 1 0 1 0.991
28 228 0 27 0 0 1 2 1 1 0.909
29 228 0 28 3 3 2 2 1 2 0.602
30 228 0 29 2 2 3 2 1 3 0.626
31 228 0 30 0 0 3 1 1 3 0.407
32 228 0 31 1 1 0 1 1 0 0.787
33 228 0 32 2 2 1 2 1 1 1.348
34 228 0 33 2 2 0 1 1 0 0.719
35 228 0 34 0 0 0 1 1 0 0.416
36 228 0 35 0 0 0 1 1 0 0.363
37 228 0 36 0 0 2 2 1 2 0.556
38 228 0 37 1 1 3 1 1 3 0.563
39 228 0 38 3 3 0 2 1 0 0.525
40 228 0 39 2 3 1 0 1 1 0.886
41 228 0 40 0 0 1 2 1 1 0.643
42 228 0 41 0 0 3 2 1 3 0.584
43 228 0 42 2 2 3 1 0 0 1.976
44 228 0 43 0 0 2 2 0 0 1.73
45 228 0 44 0 0 3 2 1 3 0.373
46 228 0 45 0 0 1 1 1 1 0.803
47 228 0 46 1 1 0 1 1 0 0.881
48 228 0 47 0 0 3 2 1 3 0.43
49 228 0 48 1 1 0 1 1 0 0.809
50 228 0 49 3 2 3 0 1 3 0.872
51 228 0 50 3 2 3 0 1 3 0.42
52 228 0 51 3 3 1 2 1 1 0.995
53 228 0 52 2 2 0 2 1 0 1.02
54 228 0 53 0 0 2 2 1 2 0.655
55 228 0 54 3 3 0 1 1 0 0.53
56 228 0 55 2 2 2 2 1 2 0.541
57 228 0 56 2 2 2 2 1 2 0.568
58 228 0 57 1 1 0 2 1 0 0.674
59 228 0 58 0 1 0 0 1 0 0.533
60 228 0 59 3 1 2 0 1 2 0.46
61 228 0 60 2 2 1 2 0 0 0.953
62 228 0 61 0 0 3 2 1 3 0.424
63 228 0 62 0 1 0 0 1 0 0.563
64 228 0 63 3 3 0 1 1 0 0.427
65 228 0 64 0 2 3 0 1 3 0.391
66 228 0 65 3 0 3 0 1 3 0.42
67 228 0 66 2 2 3 2 1 3 0.37
68 228 0 67 2 2 2 1 1 2 0.399
69 228 0 68 3 3 3 2 1 3 0.414
70 228 0 69 0 0 1 2 0 0 0.38
71 228 0 70 1 0 0 0 1 0 1.66
72 228 0 71 3 0 3 0 1 3 0.428
73 228 0 72 2 1 2 0 1 2 0.456
74 228 0 73 1 2 3 0 1 3 1.219
75 228 0 74 2 0 3 0 1 3 0.449
76 228 0 75 2 2 1 2 1 1 0.958
77 228 0 76 2 2 1 1 1 1 0.47
78 228 0 77 1 1 0 2 0 1 1.033
79 228 0 78 1 1 1 1 1 1 0.85
80 228 0 79 2 2 3 2 0 2 1.153
81 228 1 80 3 3 3 1 1 3 1.063
82 228 1 81 0 0 2 1 1 2 0.348
83 228 1 82 2 1 1 0 0 0 0.763
84 228 1 83 2 2 1 1 0 2 0.559
85 228 1 84 2 2 0 1 1 0 0.522
86 228 1 85 3 3 1 1 1 1 0.61
87 228 1 86 0 1 1 0 1 1 0.504
88 228 1 87 1 2 3 0 0 1 0.753
89 228 1 88 3 0 2 0 1 2 0.805
90 228 1 89 2 0 1 0 1 1 0.755
91 228 1 90 3 3 0 1 1 0 0.771
92 228 1 91 1 1 3 2 1 3 1.46
93 228 1 92 1 1 3 2 1 3 0.43
94 228 1 93 3 3 0 2 1 0 0.701
95 228 1 94 3 3 0 1 1 0 0.367
96 228 1 95 2 2 1 1 1 1 0.715
97 228 1 96 0 0 0 2 1 0 0.527
98 228 1 97 2 2 0 1 1 0 0.518
99 228 1 98 1 1 0 2 1 0 0.353
100 228 1 99 3 3 0 2 1 0 0.418
101 228 1 100 3 0 0 0 1 0 1.662
102 228 1 101 2 2 3 2 1 3 1.392
103 228 1 102 3 3 2 1 1 2 0.665
104 228 1 103 1 1 1 1 1 1 0.845
105 228 1 104 2 2 3 1 1 3 0.505
106 228 1 105 0 0 2 2 0 0 0.756
107 228 1 106 3 2 0 0 0 3 0.599
108 228 1 107 3 3 2 1 1 2 0.673
109 228 1 108 0 1 0 0 1 0 0.708
110 228 1 109 1 1 2 1 1 2 0.758
111 228 1 110 1 2 0 0 1 0 0.758
112 228 1 111 1 1 3 2 1 3 0.744
113 228 1 112 0 0 0 1 1 0 0.489
114 228 1 113 3 3 3 2 1 3 0.532
115 228 1 114 1 1 2 1 1 2 0.732
116 228 1 115 3 3 1 2 1 1 0.879
117 228 1 116 1 0 0 0 1 0 2.107
118 229 0 0 3 3 0 1 1 0 1.324
119 228 1 117 2 0 3 0 1 3 0.506
120 229 0 1 0 1 2 0 1 2 1.138
121 228 1 118 2 2 2 2 1 2 1.174
122 229 0 2 0 0 0 2 1 0 1.433
123 228 1 119 1 1 1 2 1 1 0.937
124 229 0 3 0 0 3 2 1 3 0.557
125 228 1 120 3 3 2 1 1 2 0.562
126 229 0 4 3 1 3 0 1 3 0.517
127 228 1 121 2 1 2 0 1 2 0.376
128 229 0 5 1 1 1 2 1 1 1.121
129 228 1 122 3 2 3 0 1 3 0.405
130 229 0 6 3 3 1 1 1 1 1.141
131 228 1 123 0 0 0 1 1 0 0.594
132 229 0 7 1 1 3 1 1 3 0.409
133 228 1 124 0 0 2 1 1 2 0.583
134 229 0 8 1 1 3 2 1 3 0.297
135 228 1 125 2 3 0 0 1 0 0.813
136 229 0 9 0 0 3 1 1 3 0.332
137 228 1 126 1 0 2 0 1 2 0.524
138 229 0 10 3 3 2 2 0 0 1.32
139 228 1 127 3 3 3 2 1 3 0.583
140 229 0 11 3 3 1 1 1 1 0.753
141 228 1 128 2 2 2 1 0 1 0.909
142 229 0 12 1 1 0 2 1 0 1.302
143 228 1 129 2 2 3 2 1 3 0.398
144 228 1 130 0 1 0 0 0 3 0.857
145 229 0 13 1 1 1 1 1 1 1.187
146 228 1 131 0 0 0 2 1 0 0.507
147 229 0 14 2 2 1 2 0 3 1.199
148 228 1 132 2 3 1 0 1 1 0.899
149 229 0 15 1 1 2 1 1 2 0.823
150 228 1 133 3 3 0 1 1 0 0.558
151 229 0 16 3 2 3 0 1 3 0.444
152 228 1 134 2 2 1 1 1 1 0.757
153 229 0 17 2 0 2 0 0 0 2.008
154 228 1 135 1 1 0 1 1 0 0.629
155 228 1 136 0 0 0 2 1 0 0.316
156 229 0 18 3 3 0 2 1 0 1.908
157 228 1 137 3 3 2 2 1 2 0.607
158 229 0 19 0 1 1 0 0 2 1.581
159 228 1 138 0 0 0 1 1 0 0.404
160 228 1 139 1 2 0 0 1 0 0.464
161 229 0 20 1 0 1 0 0 3 0.844
162 228 1 140 2 2 3 1 1 3 0.394
163 229 0 21 2 2 1 1 0 0 0.957
164 228 1 141 2 2 2 2 1 2 0.376
165 229 0 22 3 3 0 2 1 0 1.102
166 228 1 142 2 2 0 2 1 0 0.519
167 229 0 23 0 0 3 1 1 3 0.379
168 228 1 143 0 0 2 1 1 2 1.201
169 229 0 24 0 0 3 2 1 3 0.645
170 228 1 144 2 2 3 2 1 3 0.371
171 229 0 25 0 0 2 1 1 2 0.94
172 228 1 145 0 0 3 2 1 3 0.372
173 229 0 26 0 0 1 2 1 1 1.049
174 228 1 146 3 3 1 2 1 1 1.188
175 228 1 147 2 0 2 0 1 2 0.388
176 229 0 27 0 1 1 0 0 3 1.975
177 228 1 148 1 2 1 0 1 1 0.961
178 229 0 28 0 0 0 1 1 0 0.864
179 228 1 149 0 2 1 0 1 1 0.312
180 229 0 29 1 1 1 2 1 1 1.128
181 228 1 150 0 0 3 2 1 3 0.442
182 229 0 30 2 2 2 1 0 3 0.788
183 228 1 151 3 1 0 0 1 0 0.838
184 229 0 31 2 2 1 1 1 1 0.872
185 228 1 152 2 2 1 1 1 1 0.803
186 229 0 32 2 2 1 2 1 1 0.561
187 228 1 153 0 0 1 2 1 1 0.612
188 229 0 33 2 0 2 0 1 2 0.826
189 228 1 154 1 1 2 2 1 2 1.212
190 229 0 34 3 3 1 1 1 1 0.882
191 228 1 155 3 2 3 0 0 1 0.635
192 229 0 35 3 1 2 0 1 2 0.83
193 228 1 156 0 1 0 0 0 2 0.514
194 229 0 36 0 1 3 0 0 2 0.557
195 228 1 157 2 2 0 1 0 1 0.702
196 229 0 37 0 0 1 2 0 3 1.811
197 228 1 158 2 1 2 0 1 2 0.755
198 228 1 159 3 3 3 2 1 3 0.406
199 229 0 38 0 2 1 0 1 1 1.172
200 229 0 39 2 2 3 2 1 3 0.425
201 229 0 40 0 2 2 0 1 2 0.839
202 229 0 41 1 0 1 0 0 2 0.61
203 229 0 42 0 1 1 0 1 1 0.507
204 229 0 43 3 3 2 1 1 2 0.725
205 229 0 44 1 1 1 1 1 1 1.376
206 229 0 45 0 2 2 0 0 3 0.811
207 229 0 46 3 3 2 1 1 2 0.703
208 229 0 47 0 0 0 2 1 0 1.005
209 229 0 48 1 1 1 1 1 1 0.846
210 229 0 49 2 2 0 2 1 0 1.112
211 229 0 50 3 0 3 0 1 3 0.452
212 229 0 51 3 1 0 0 1 0 1.4
213 229 0 52 3 3 1 1 1 1 0.779
214 229 0 53 1 1 0 2 0 3 0.822
215 229 0 54 0 0 2 1 1 2 0.752
216 229 0 55 1 1 0 1 1 0 0.778
217 229 0 56 3 3 2 2 1 2 0.758
218 229 0 57 1 2 0 0 0 3 0.952
219 229 0 58 3 0 3 0 1 3 0.375
220 229 0 59 1 0 1 0 0 0 1.717
221 229 0 60 3 0 2 0 1 2 0.4
222 229 0 61 0 0 1 1 1 1 0.782
223 229 0 62 1 1 0 1 0 2 0.494
224 229 0 63 0 0 3 2 1 3 0.983
225 228 2 160 3 3 1 2 1 1 0.852
226 229 0 64 0 0 3 1 1 3 0.273
227 228 2 161 2 2 3 1 1 3 0.369
228 229 0 65 3 1 2 0 1 2 0.708
229 228 2 162 1 2 2 0 1 2 0.415
230 229 0 66 1 1 1 1 1 1 0.92
231 228 2 163 2 2 3 1 1 3 0.299
232 229 0 67 0 0 1 1 1 1 0.652
233 228 2 164 3 1 0 0 1 0 0.988
234 229 0 68 2 1 3 0 1 3 0.372
235 228 2 165 2 0 2 0 1 2 0.339
236 229 0 69 0 0 3 1 1 3 0.338
237 228 2 166 3 3 3 1 1 3 0.306
238 229 0 70 0 0 3 1 1 3 0.283
239 228 2 167 0 1 3 0 1 3 0.529
240 229 0 71 2 1 0 0 1 0 1.109
241 228 2 168 1 1 2 1 1 2 0.345
242 229 0 72 0 1 0 0 1 0 0.378
243 228 2 169 1 1 3 2 1 3 0.307
244 229 0 73 1 1 0 1 1 0 0.512
245 228 2 170 3 3 2 1 1 2 0.323
246 229 0 74 2 2 3 2 1 3 0.386
247 228 2 171 3 3 0 2 1 0 0.514
248 228 2 172 0 0 0 1 1 0 0.411
249 229 0 75 3 0 0 0 1 0 0.858
250 228 2 173 1 1 3 1 1 3 0.328
251 229 0 76 3 3 3 1 1 3 0.368
252 228 2 174 3 3 0 1 1 0 0.407
253 229 0 77 2 2 0 1 0 1 1.977
254 228 2 175 2 2 0 1 1 0 0.34
255 229 0 78 2 2 3 1 1 3 0.386
256 228 2 176 1 1 2 1 1 2 0.466
257 229 0 79 0 0 2 1 1 2 0.72
258 228 2 177 3 2 0 0 1 0 0.428
259 228 2 178 0 0 1 2 0 0 0.297
260 228 2 179 1 0 2 0 0 1 0.797
261 229 1 80 1 1 2 1 1 2 0.844
262 229 1 81 3 3 3 1 1 3 0.37
263 228 2 180 1 1 2 1 1 2 0.494
264 229 1 82 3 3 3 2 1 3 0.317
265 228 2 181 2 2 2 2 0 3 0.891
266 229 1 83 2 2 3 2 1 3 0.513
267 228 2 182 1 2 2 0 1 2 1.13
268 229 1 84 3 1 2 0 1 2 0.572
269 228 2 183 1 1 3 2 1 3 0.351
270 229 1 85 0 1 1 0 1 1 0.796
271 228 2 184 1 2 3 0 1 3 0.365
272 229 1 86 0 0 1 1 1 1 0.421
273 228 2 185 1 1 3 2 1 3 0.333
274 229 1 87 0 0 3 2 1 3 0.348
275 228 2 186 1 1 3 1 1 3 0.22
276 229 1 88 0 0 2 1 1 2 0.86
277 228 2 187 1 1 2 2 1 2 0.865
278 229 1 89 0 2 3 0 1 3 0.529
279 228 2 188 3 3 3 1 1 3 0.348
280 228 2 189 3 3 3 1 1 3 0.282
281 229 1 90 2 2 0 1 1 0 0.819
282 229 1 91 1 1 2 2 1 2 0.428
283 228 2 190 1 1 1 1 1 1 0.731
284 229 1 92 0 0 2 2 1 2 0.403
285 228 2 191 0 0 1 1 1 1 0.491
286 229 1 93 3 2 0 0 0 3 0.93
287 228 2 192 3 3 3 2 1 3 0.391
288 229 1 94 1 1 0 2 1 0 0.804
289 228 2 193 0 0 1 2 1 1 0.679
290 228 2 194 3 0 2 0 1 2 0.426
291 229 1 95 1 1 1 1 1 1 0.772
292 228 2 195 3 3 0 2 1 0 0.585
293 229 1 96 0 1 2 0 1 2 0.678
294 228 2 196 2 2 0 1 1 0 0.43
295 229 1 97 2 1 0 0 1 0 0.754
296 228 2 197 2 1 2 0 1 2 0.873
297 229 1 98 2 2 3 2 1 3 0.669
298 228 2 198 2 2 2 1 1 2 0.453
299 229 1 99 2 1 2 0 1 2 0.41
300 228 2 199 1 1 3 1 1 3 0.351
301 229 1 100 0 1 0 0 1 0 0.839
302 229 1 101 0 1 3 0 1 3 0.31
303 228 2 200 0 0 0 1 1 0 1.006
304 228 2 201 0 1 1 0 1 1 0.707
305 229 1 102 0 0 0 2 1 0 0.853
306 228 2 202 3 3 2 2 1 2 0.471
307 229 1 103 3 2 3 0 1 3 0.484
308 229 1 104 0 0 0 1 1 0 0.83
309 228 2 203 1 2 1 0 0 2 1.086
310 228 2 204 3 3 1 2 1 1 0.616
311 229 1 105 1 0 0 0 1 0 1.189
312 228 2 205 1 1 0 2 1 0 0.448
313 229 1 106 2 2 0 2 0 3 1.162
314 228 2 206 2 2 2 2 0 1 0.938
315 229 1 107 0 0 2 1 1 2 0.744
316 228 2 207 2 2 1 1 1 1 0.503
317 229 1 108 0 0 1 2 1 1 0.748
318 228 2 208 1 1 2 1 1 2 0.431
319 229 1 109 1 1 1 2 1 1 0.472
320 228 2 209 3 2 3 0 1 3 0.346
321 229 1 110 1 2 0 0 1 0 0.723
322 228 2 210 1 1 3 2 1 3 0.316
323 229 1 111 0 0 2 1 1 2 0.414
324 228 2 211 2 2 2 2 1 2 0.414
325 229 1 112 0 0 1 2 1 1 0.751
326 228 2 212 2 2 0 1 1 0 0.411
327 229 1 113 0 0 0 1 1 0 1.161
328 228 2 213 1 2 2 0 1 2 1
329 229 1 114 3 1 3 0 1 3 0.445
330 228 2 214 0 1 1 0 1 1 0.672
331 229 1 115 1 2 3 0 1 3 0.369
332 228 2 215 2 3 1 0 1 1 0.402
333 229 1 116 2 2 0 1 1 0 0.872
334 228 2 216 2 0 0 0 1 0 0.383
335 228 2 217 3 3 1 1 1 1 0.539
336 229 1 117 1 0 2 0 1 2 1.117
337 228 2 218 2 1 3 0 1 3 0.387
338 229 1 118 2 2 2 2 1 2 0.596
339 228 2 219 2 2 3 2 1 3 0.354
340 229 1 119 0 0 0 2 1 0 1.045
341 228 2 220 0 0 1 2 1 1 0.515
342 229 1 120 0 0 3 1 1 3 0.357
343 228 2 221 1 1 1 1 1 1 0.476
344 229 1 121 3 3 1 2 0 0 1.088
345 228 2 222 1 0 3 0 0 0 0.759
346 229 1 122 3 1 2 0 1 2 1.778
347 228 2 223 0 2 0 0 1 0 0.635
348 229 1 123 2 2 1 2 0 2 0.473
349 228 2 224 3 3 3 2 1 3 0.433
350 229 1 124 1 2 3 0 1 3 0.328
351 228 2 225 1 1 3 2 1 3 0.383
352 229 1 125 3 3 3 1 1 3 0.433
353 228 2 226 2 0 2 0 1 2 0.556
354 229 1 126 0 2 0 0 1 0 0.815
355 228 2 227 2 2 2 2 1 2 0.406
356 228 2 228 0 1 3 0 1 3 0.355
357 229 1 127 1 0 0 0 1 0 1.431
358 228 2 229 0 0 3 2 1 3 0.388
359 229 1 128 3 0 2 0 1 2 0.753
360 228 2 230 3 1 2 0 1 2 0.369
361 229 1 129 2 2 2 2 0 3 0.814
362 228 2 231 1 2 2 0 0 3 0.32
363 229 1 130 3 3 2 2 0 0 0.772
364 228 2 232 1 0 0 0 1 0 0.483
365 229 1 131 2 3 0 0 1 0 0.873
366 228 2 233 0 0 3 1 1 3 0.382
367 229 1 132 1 2 3 0 1 3 0.583
368 228 2 234 2 1 3 0 1 3 0.828
369 229 1 133 3 3 1 1 1 1 0.839
370 228 2 235 0 0 2 1 1 2 0.36
371 228 2 236 0 0 2 2 1 2 0.311
372 229 1 134 0 0 1 1 1 1 1.661
373 228 2 237 3 0 1 0 1 1 0.647
374 229 1 135 2 1 0 0 1 0 0.717
375 228 2 238 1 1 1 2 0 3 0.828
376 229 1 136 1 1 2 1 1 2 0.747
377 228 2 239 0 0 1 2 1 1 1.343
378 229 1 137 3 3 3 1 1 3 0.422
379 229 1 138 0 0 2 2 1 2 0.47
380 229 1 139 2 2 3 1 0 0 1.074
381 229 1 140 3 3 3 2 1 3 0.439
382 229 1 141 2 2 1 2 1 1 0.806
383 229 1 142 3 3 0 2 1 0 0.76
384 229 1 143 3 3 0 2 1 0 0.476
385 229 1 144 2 2 2 1 1 2 0.879
386 229 1 145 3 1 2 0 1 2 0.556
387 229 1 146 2 2 0 1 1 0 0.957
388 229 1 147 2 0 0 0 0 2 0.464
389 228 3 240 1 0 0 0 1 0 0.564
390 229 1 148 1 1 1 2 1 1 0.854
391 228 3 241 2 0 3 0 1 3 0.379
392 229 1 149 3 3 2 2 0 3 0.599
393 228 3 242 0 0 2 1 1 2 0.36
394 229 1 150 0 0 1 2 1 1 0.868
395 228 3 243 3 2 1 0 0 3 0.709
396 229 1 151 2 1 0 0 1 0 0.705
397 228 3 244 1 2 1 0 1 1 0.634
398 229 1 152 0 1 0 0 1 0 0.341
399 228 3 245 1 1 0 2 0 1 0.64
400 229 1 153 1 2 2 0 1 2 0.613
401 228 3 246 0 0 3 2 1 3 0.393
402 229 1 154 2 1 0 0 1 0 0.804
403 228 3 247 3 3 2 2 1 2 0.44
404 229 1 155 2 2 3 2 0 0 1.038
405 228 3 248 3 3 1 2 1 1 0.87
406 229 1 156 0 0 3 1 1 3 0.761
407 228 3 249 2 2 2 1 1 2 0.418
408 229 1 157 2 2 3 2 0 1 0.91
409 228 3 250 0 0 1 2 1 1 0.833
410 229 1 158 2 2 3 2 1 3 0.432
411 228 3 251 1 2 0 0 0 1 0.654
412 229 1 159 3 1 3 0 1 3 0.374
413 228 3 252 0 0 0 1 1 0 0.453
414 228 3 253 0 0 0 1 1 0 0.592
415 228 3 254 0 2 1 0 1 1 0.599
416 228 3 255 0 0 3 1 1 3 0.38
417 229 2 160 3 3 2 2 1 2 0.879
418 228 3 256 2 2 1 2 0 3 0.557
419 229 2 161 3 3 3 2 1 3 0.359
420 228 3 257 3 3 2 1 1 2 0.408
421 228 3 258 2 2 2 1 1 2 0.373
422 229 2 162 3 3 1 2 1 1 0.818
423 228 3 259 0 0 2 2 1 2 0.389
424 229 2 163 1 0 2 0 0 1 1.506
425 228 3 260 0 2 2 0 1 2 0.306
426 229 2 164 2 2 2 1 0 3 0.612
427 228 3 261 1 0 1 0 1 1 0.562
428 229 2 165 1 1 2 2 1 2 0.729
429 228 3 262 3 3 2 1 1 2 0.329
430 229 2 166 1 1 0 1 1 0 0.787
431 228 3 263 0 0 0 2 1 0 0.459
432 229 2 167 3 3 0 1 1 0 0.852
433 228 3 264 3 3 2 1 1 2 0.406
434 229 2 168 3 3 3 1 1 3 0.355
435 228 3 265 0 0 3 2 1 3 0.389
436 228 3 266 0 0 1 1 1 1 0.467
437 229 2 169 1 1 0 2 1 0 0.869
438 228 3 267 1 1 0 1 1 0 0.477
439 229 2 170 3 3 1 1 1 1 1.651
440 228 3 268 0 0 0 2 1 0 0.345
441 229 2 171 0 1 0 0 1 0 0.611
442 228 3 269 2 0 0 0 1 0 0.311
443 229 2 172 3 3 0 2 1 0 0.461
444 228 3 270 1 1 1 2 1 1 0.554
445 229 2 173 2 2 0 2 0 3 0.652
446 228 3 271 1 1 1 1 1 1 0.386
447 229 2 174 0 0 0 2 1 0 0.736
448 228 3 272 3 3 2 2 1 2 0.577
449 229 2 175 3 3 0 1 1 0 0.371
450 228 3 273 2 2 3 1 1 3 0.36
451 229 2 176 0 0 3 1 1 3 0.347
452 228 3 274 1 2 3 0 1 3 0.31
453 229 2 177 2 1 1 0 1 1 0.826
454 228 3 275 0 0 3 1 1 3 0.373
455 229 2 178 0 0 2 2 1 2 0.724
456 228 3 276 1 1 0 2 1 0 0.421
457 228 3 277 2 2 3 1 1 3 0.305
458 229 2 179 2 2 1 1 1 1 1.446
459 228 3 278 2 2 3 2 1 3 0.291
460 229 2 180 1 1 2 1 1 2 0.815
461 228 3 279 2 2 0 2 1 0 0.438
462 229 2 181 3 1 3 0 1 3 0.327
463 228 3 280 1 1 0 1 1 0 0.385
464 229 2 182 3 2 1 0 1 1 0.753
465 228 3 281 2 0 1 0 1 1 0.511
466 229 2 183 1 1 0 2 1 0 0.925
467 228 3 282 2 2 3 1 1 3 0.457
468 229 2 184 0 0 2 1 1 2 0.457
469 228 3 283 3 3 1 1 1 1 0.563
470 228 3 284 0 1 3 0 1 3 0.378
471 229 2 185 1 1 2 2 1 2 0.781
472 228 3 285 2 0 3 0 1 3 0.359
473 229 2 186 1 2 2 0 1 2 0.493
474 229 2 187 3 3 2 2 1 2 0.402
475 228 3 286 0 2 2 0 1 2 0.532
476 229 2 188 2 1 3 0 1 3 0.344
477 228 3 287 0 0 3 2 1 3 0.382
478 228 3 288 0 0 3 1 1 3 0.363
479 229 2 189 2 2 0 1 0 3 0.68
480 228 3 289 0 0 0 2 1 0 0.428
481 229 2 190 0 0 0 1 1 0 0.744
482 228 3 290 3 0 0 0 1 0 0.36
483 229 2 191 0 1 1 0 1 1 0.563
484 228 3 291 1 1 3 1 1 3 0.326
485 229 2 192 0 0 3 2 1 3 0.367
486 228 3 292 2 2 3 1 1 3 0.39
487 229 2 193 1 1 0 2 1 0 1.12
488 228 3 293 3 3 0 1 1 0 0.37
489 229 2 194 0 0 0 2 1 0 0.631
490 228 3 294 1 1 0 2 1 0 0.418
491 229 2 195 0 0 3 2 0 0 0.655
492 228 3 295 3 3 0 1 1 0 0.382
493 229 2 196 3 3 2 1 1 2 0.905
494 228 3 296 1 1 0 1 1 0 0.236
495 229 2 197 3 3 2 2 1 2 0.328
496 228 3 297 1 1 2 2 1 2 0.497
497 228 3 298 2 2 2 1 1 2 0.299
498 229 2 198 1 1 0 1 1 0 0.898
499 228 3 299 0 1 3 0 1 3 0.348
500 229 2 199 2 2 1 2 0 2 0.777
501 228 3 300 2 2 1 1 1 1 0.954
502 229 2 200 3 3 1 2 1 1 0.799
503 228 3 301 3 3 3 1 1 3 0.322
504 229 2 201 0 1 1 0 1 1 0.543
505 229 2 202 1 1 0 2 0 2 0.419
506 228 3 302 3 3 1 2 1 1 0.66
507 228 3 303 3 3 3 2 1 3 0.395
508 229 2 203 2 2 2 1 1 2 0.765
509 228 3 304 1 1 1 1 1 1 0.52
510 229 2 204 1 1 1 1 1 1 0.776
511 228 3 305 1 1 2 1 1 2 0.449
512 229 2 205 0 0 1 1 0 2 0.313
513 229 2 206 2 2 2 2 0 3 0.585
514 228 3 306 1 0 1 0 1 1 0.668
515 228 3 307 2 2 1 1 1 1 0.495
516 229 2 207 1 1 0 1 1 0 0.773
517 228 3 308 0 1 3 0 1 3 0.344
518 229 2 208 3 3 3 2 1 3 0.528
519 228 3 309 1 1 1 1 1 1 0.582
520 229 2 209 2 3 3 0 1 3 0.593
521 228 3 310 1 2 1 0 1 1 0.491
522 229 2 210 3 1 2 0 1 2 0.464
523 228 3 311 3 3 0 1 1 0 0.452
524 229 2 211 3 3 1 1 1 1 0.66
525 228 3 312 3 3 2 1 1 2 0.527
526 229 2 212 3 1 3 0 1 3 0.472
527 229 2 213 1 1 3 1 1 3 0.292
528 228 3 313 0 0 0 1 1 0 0.359
529 228 3 314 0 0 0 1 1 0 0.358
530 229 2 214 3 3 2 1 1 2 0.559
531 228 3 315 0 0 3 1 1 3 0.405
532 229 2 215 0 0 2 1 1 2 0.832
533 228 3 316 0 0 3 2 1 3 0.467
534 229 2 216 1 1 2 1 1 2 0.398
535 228 3 317 2 2 2 1 1 2 0.749
536 229 2 217 1 1 1 1 1 1 0.692
537 228 3 318 0 0 2 2 1 2 0.543
538 229 2 218 1 1 0 1 1 0 1.2
539 228 3 319 0 0 1 2 1 1 0.616
540 229 2 219 2 2 3 2 1 3 0.395
541 229 2 220 2 2 0 2 1 0 0.789
542 229 2 221 3 3 2 2 1 2 0.696
543 229 2 222 0 0 2 1 1 2 0.381
544 229 2 223 2 2 2 2 1 2 0.631
545 229 2 224 1 1 1 1 1 1 0.957
546 229 2 225 3 3 2 2 1 2 0.545
547 229 2 226 0 0 3 1 1 3 0.449
548 229 2 227 0 0 1 2 1 1 0.92
549 229 2 228 3 3 3 2 1 3 0.405
550 229 2 229 2 2 3 2 0 1 2.198
551 229 2 230 1 1 1 2 0 2 0.618
552 229 2 231 2 2 2 1 0 0 0.748
553 229 2 232 2 3 1 0 1 1 1.883
554 229 2 233 1 1 1 1 1 1 0.404
555 229 2 234 1 1 3 2 1 3 0.349
556 229 2 235 0 0 1 2 1 1 2.927
557 229 2 236 1 2 0 0 1 0 0.931
558 229 2 237 0 0 2 2 1 2 0.512
559 229 2 238 0 2 3 0 1 3 0.61
560 229 2 239 2 2 2 1 1 2 0.434
561 228 4 320 0 1 3 0 1 3 0.469
562 229 3 240 2 1 3 0 1 3 0.487
563 228 4 321 2 2 1 2 1 1 0.625
564 229 3 241 3 1 0 0 0 2 0.491
565 228 4 322 0 0 0 2 1 0 0.36
566 229 3 242 2 2 1 2 0 0 1.732
567 228 4 323 0 0 0 1 1 0 0.26
568 229 3 243 1 1 3 2 1 3 0.328
569 228 4 324 0 0 0 2 1 0 0.232
570 229 3 244 0 1 1 0 1 1 0.8
571 228 4 325 0 0 0 2 1 0 0.204
572 228 4 326 2 1 3 0 1 3 0.304
573 229 3 245 2 3 2 0 0 3 1.607
574 228 4 327 0 0 0 1 1 0 0.191
575 229 3 246 0 0 1 1 0 2 0.398
576 228 4 328 1 1 0 1 1 0 0.339
577 229 3 247 2 2 3 1 1 3 0.408
578 228 4 329 0 0 3 2 1 3 0.373
579 229 3 248 2 2 2 1 1 2 0.695
580 228 4 330 1 1 3 1 1 3 0.371
581 229 3 249 1 1 0 1 1 0 0.883
582 228 4 331 3 3 3 1 1 3 0.321
583 228 4 332 1 1 1 2 0 2 0.627
584 229 3 250 0 0 2 1 0 0 1.073
585 228 4 333 3 0 1 0 1 1 0.475
586 229 3 251 1 1 1 1 1 1 0.667
587 228 4 334 2 2 3 1 1 3 0.324
588 229 3 252 2 2 0 2 1 0 0.818
589 229 3 253 2 3 3 0 1 3 0.409
590 228 4 335 1 1 3 2 1 3 1.717
591 228 4 336 2 2 2 2 1 2 0.357
592 229 3 254 1 1 2 2 1 2 1.807
593 228 4 337 1 1 1 2 1 1 0.597
594 228 4 338 2 2 1 2 1 1 0.445
595 229 3 255 2 1 1 0 1 1 2.051
596 228 4 339 0 0 1 2 1 1 0.571
597 229 3 256 3 3 0 1 1 0 0.75
598 228 4 340 3 3 0 2 1 0 0.58
599 229 3 257 1 1 3 1 1 3 0.361
600 228 4 341 0 0 0 2 1 0 0.445
601 229 3 258 3 3 0 1 1 0 1.073
602 228 4 342 0 2 0 0 1 0 0.392
603 229 3 259 2 2 1 2 1 1 0.922
604 228 4 343 2 1 1 0 1 1 0.596
605 229 3 260 1 1 2 2 1 2 0.679
606 228 4 344 3 3 3 1 1 3 0.345
607 229 3 261 3 3 0 2 1 0 0.942
608 228 4 345 3 3 3 1 1 3 0.711
609 229 3 262 0 0 2 1 1 2 0.617
610 228 4 346 3 3 1 1 1 1 0.457
611 229 3 263 3 3 3 1 1 3 0.353
612 228 4 347 0 0 2 2 1 2 0.55
613 229 3 264 3 3 0 2 1 0 0.915
614 228 4 348 0 0 2 1 1 2 0.382
615 229 3 265 3 3 3 1 1 3 0.375
616 228 4 349 0 0 3 1 1 3 0.396
617 229 3 266 1 1 0 2 1 0 0.89
618 228 4 350 0 0 0 1 1 0 0.408
619 229 3 267 2 0 3 0 1 3 0.326
620 228 4 351 0 0 0 2 1 0 0.311
621 229 3 268 0 0 2 1 1 2 0.551
622 228 4 352 2 3 2 0 1 2 0.534
623 228 4 353 1 1 2 1 1 2 0.285
624 229 3 269 0 2 2 0 1 2 1.167
625 228 4 354 1 1 0 1 1 0 0.381
626 229 3 270 0 0 1 1 1 1 0.761
627 228 4 355 2 2 3 1 1 3 0.362
628 229 3 271 3 3 0 2 1 0 0.925
629 228 4 356 0 0 0 2 1 0 0.251
630 229 3 272 3 0 0 0 1 0 0.65
631 228 4 357 3 3 3 2 1 3 0.351
632 229 3 273 1 1 0 2 1 0 0.466
633 228 4 358 2 0 0 0 1 0 0.446
634 229 3 274 3 3 0 2 1 0 0.496
635 228 4 359 1 1 2 2 1 2 0.443
636 229 3 275 1 2 3 0 1 3 1.027
637 228 4 360 1 1 1 1 0 0 0.405
638 228 4 361 0 1 2 0 1 2 0.453
639 229 3 276 3 3 2 1 1 2 0.819
640 228 4 362 2 2 3 2 1 3 0.402
641 229 3 277 3 3 2 1 1 2 0.57
642 228 4 363 2 2 0 1 1 0 0.43
643 229 3 278 2 3 3 0 1 3 0.707
644 228 4 364 2 1 0 0 1 0 0.475
645 229 3 279 3 3 3 1 1 3 0.295
646 228 4 365 1 1 3 1 1 3 0.421
647 229 3 280 0 0 3 2 1 3 0.404
648 228 4 366 2 2 3 2 1 3 0.34
649 229 3 281 2 0 1 0 1 1 1.698
650 228 4 367 3 3 2 2 1 2 0.357
651 229 3 282 1 1 2 2 1 2 0.684
652 228 4 368 0 0 2 1 1 2 0.419
653 229 3 283 2 3 1 0 0 2 0.44
654 228 4 369 3 0 3 0 1 3 0.366
655 229 3 284 0 0 0 1 1 0 0.745
656 228 4 370 1 1 1 1 1 1 0.604
657 229 3 285 1 1 3 1 1 3 0.363
658 228 4 371 1 2 2 0 1 2 0.385
659 229 3 286 2 2 2 2 1 2 0.67
660 228 4 372 0 2 1 0 1 1 1.231
661 229 3 287 2 2 0 2 1 0 0.701
662 228 4 373 1 1 0 1 1 0 0.478
663 229 3 288 3 1 1 0 1 1 0.769
664 228 4 374 1 1 0 2 0 1 0.651
665 229 3 289 2 2 2 1 0 3 0.706
666 228 4 375 1 1 3 1 1 3 0.371
667 229 3 290 1 1 1 1 1 1 0.673
668 228 4 376 0 0 1 1 1 1 0.8
669 229 3 291 1 1 3 2 1 3 0.352
670 228 4 377 1 1 2 1 1 2 0.35
671 229 3 292 2 2 1 2 1 1 0.698
672 228 4 378 0 0 3 2 1 3 0.382
673 229 3 293 2 2 3 2 1 3 0.6
674 228 4 379 1 1 3 2 1 3 0.413
675 229 3 294 3 3 0 1 1 0 0.615
676 228 4 380 3 3 2 1 1 2 0.36
677 229 3 295 2 1 2 0 1 2 0.941
678 228 4 381 2 3 1 0 1 1 1.11
679 229 3 296 1 1 3 2 1 3 0.331
680 228 4 382 3 3 1 1 1 1 0.666
681 229 3 297 0 0 0 1 1 0 0.733
682 228 4 383 3 3 3 1 1 3 0.318
683 229 3 298 0 0 1 2 1 1 0.754
684 228 4 384 2 2 2 2 0 1 0.767
685 229 3 299 3 2 1 0 0 3 0.972
686 228 4 385 3 3 0 1 1 0 0.578
687 229 3 300 2 0 2 0 1 2 0.466
688 228 4 386 2 1 3 0 1 3 0.665
689 229 3 301 2 2 2 1 1 2 0.455
690 228 4 387 1 1 1 2 1 1 0.479
691 229 3 302 1 1 0 1 1 0 0.604
692 228 4 388 3 0 3 0 1 3 0.377
693 229 3 303 3 0 0 0 1 0 0.499
694 228 4 389 0 0 1 1 1 1 0.407
695 229 3 304 2 2 0 1 1 0 0.478
696 228 4 390 0 1 2 0 1 2 0.404
697 228 4 391 2 0 0 0 1 0 0.48
698 229 3 305 2 0 1 0 1 1 0.882
699 229 3 306 0 0 1 1 1 1 0.384
700 228 4 392 3 3 1 1 1 1 0.666
701 229 3 307 1 1 2 2 1 2 0.593
702 228 4 393 1 1 2 2 1 2 0.432
703 229 3 308 2 2 2 2 1 2 0.332
704 228 4 394 3 1 1 0 1 1 0.508
705 229 3 309 0 1 3 0 1 3 0.397
706 228 4 395 1 1 3 2 1 3 0.344
707 229 3 310 1 1 3 2 1 3 0.263
708 228 4 396 0 0 2 1 1 2 0.887
709 229 3 311 3 3 3 1 1 3 0.257
710 228 4 397 2 2 1 1 1 1 0.45
711 229 3 312 2 2 1 2 1 1 1.567
712 228 4 398 0 2 3 0 1 3 0.362
713 229 3 313 1 2 2 0 0 0 0.706
714 228 4 399 0 0 3 1 1 3 0.359
715 229 3 314 2 2 2 1 1 2 0.369
716 229 3 315 0 0 0 1 1 0 0.672
717 229 3 316 3 0 3 0 1 3 0.277
718 229 3 317 3 3 3 2 1 3 0.523
719 229 3 318 2 2 3 2 1 3 0.351
720 229 3 319 2 2 3 2 1 3 0.33
721 229 4 320 2 2 3 1 1 3 0.252
722 229 4 321 1 1 0 2 0 2 0.302
723 229 4 322 2 1 1 0 1 1 0.387
724 229 4 323 3 3 0 2 1 0 0.651
725 229 4 324 0 0 2 1 1 2 0.52
726 229 4 325 0 0 1 2 1 1 0.725
727 229 4 326 3 3 2 1 1 2 0.44
728 229 4 327 3 3 3 2 1 3 0.32
729 229 4 328 2 2 3 2 1 3 0.42
730 229 4 329 0 0 2 1 1 2 0.594
731 229 4 330 2 2 3 2 1 3 0.724
732 229 4 331 2 2 2 1 1 2 0.766
733 228 5 400 2 2 0 2 1 0 0.397
734 229 4 332 0 0 3 1 1 3 0.311
735 228 5 401 1 1 2 1 1 2 0.394
736 229 4 333 1 1 3 1 1 3 0.304
737 228 5 402 3 3 1 2 0 0 0.408
738 229 4 334 1 1 0 2 1 0 0.564
739 228 5 403 2 2 0 1 1 0 0.376
740 229 4 335 1 0 3 0 1 3 0.548
741 228 5 404 1 1 3 1 1 3 0.422
742 229 4 336 2 3 3 0 1 3 0.461
743 228 5 405 2 1 1 0 1 1 0.466
744 229 4 337 0 0 2 2 1 2 0.372
745 228 5 406 2 2 1 1 1 1 0.445
746 228 5 407 0 0 0 1 1 0 0.601
747 229 4 338 3 0 3 0 0 0 1.932
748 228 5 408 3 3 1 2 1 1 0.64
749 229 4 339 2 2 2 1 1 2 0.959
750 228 5 409 0 0 3 2 1 3 0.421
751 229 4 340 3 3 3 2 1 3 0.355
752 228 5 410 0 2 1 0 1 1 0.641
753 229 4 341 3 3 0 1 1 0 0.858
754 228 5 411 0 0 2 2 1 2 0.551
755 228 5 412 0 1 0 0 1 0 0.559
756 229 4 342 1 0 0 0 0 2 2.544
757 229 4 343 3 3 2 1 0 3 0.301
758 228 5 413 3 2 1 0 1 1 0.518
759 229 4 344 3 3 2 1 0 0 0.819
760 228 5 414 1 2 0 0 0 3 0.911
761 228 5 415 1 2 3 0 1 3 0.429
762 229 4 345 1 0 1 0 1 1 1.398
763 228 5 416 2 1 1 0 1 1 0.792
764 229 4 346 2 1 3 0 1 3 0.857
765 228 5 417 0 1 1 0 1 1 0.55
766 229 4 347 3 0 2 0 1 2 0.414
767 228 5 418 0 0 1 2 1 1 0.767
768 229 4 348 2 2 3 2 0 1 0.982
769 228 5 419 3 3 3 2 1 3 0.513
770 229 4 349 0 1 2 0 1 2 0.738
771 228 5 420 2 2 2 2 1 2 0.509
772 229 4 350 0 0 1 2 1 1 0.8
773 228 5 421 0 1 3 0 1 3 0.422
774 229 4 351 1 1 2 1 1 2 0.664
775 228 5 422 2 1 0 0 1 0 0.722
776 229 4 352 1 1 3 1 1 3 0.302
777 228 5 423 2 1 0 0 1 0 0.835
778 229 4 353 2 1 1 0 1 1 0.783
779 228 5 424 0 2 3 0 1 3 0.464
780 229 4 354 0 1 1 0 1 1 0.303
781 228 5 425 2 2 2 1 1 2 0.458
782 229 4 355 3 3 2 2 1 2 0.467
783 228 5 426 3 3 3 2 1 3 0.327
784 229 4 356 2 2 1 2 0 3 0.657
785 228 5 427 3 1 2 0 1 2 0.901
786 229 4 357 3 0 2 0 1 2 0.691
787 228 5 428 1 1 1 1 1 1 0.497
788 229 4 358 3 3 1 2 1 1 0.762
789 228 5 429 1 1 1 1 1 1 0.33
790 229 4 359 1 1 0 1 1 0 0.684
791 228 5 430 0 0 0 2 1 0 0.523
792 229 4 360 3 3 2 2 1 2 0.45
793 229 4 361 1 1 2 1 1 2 0.366
794 228 5 431 0 0 0 2 1 0 0.837
795 229 4 362 1 1 2 2 1 2 0.318
796 228 5 432 2 1 0 0 1 0 0.658
797 229 4 363 3 3 2 1 1 2 0.36
798 228 5 433 2 2 2 2 1 2 0.552
799 229 4 364 3 3 1 1 1 1 0.392
800 228 5 434 2 2 2 2 1 2 0.45
801 229 4 365 3 3 2 1 1 2 0.327
802 228 5 435 2 0 3 0 1 3 0.462
803 229 4 366 0 1 1 0 1 1 1.993
804 228 5 436 0 0 2 2 0 0 2.202
805 229 4 367 2 3 3 0 1 3 0.367
806 228 5 437 1 1 0 1 1 0 0.393
807 229 4 368 1 1 3 2 1 3 0.4
808 228 5 438 0 1 0 0 1 0 0.262
809 229 4 369 0 0 3 1 1 3 0.366
810 228 5 439 2 2 0 2 1 0 0.473
811 229 4 370 2 2 3 2 1 3 0.312
812 228 5 440 3 3 1 2 1 1 0.484
813 229 4 371 3 3 1 2 1 1 0.483
814 228 5 441 0 0 3 1 1 3 0.382
815 229 4 372 1 1 2 1 1 2 0.318
816 229 4 373 3 3 2 1 1 2 0.328
817 228 5 442 2 2 0 2 1 0 1.469
818 229 4 374 2 2 2 2 0 3 0.707
819 228 5 443 1 2 2 0 1 2 0.548
820 229 4 375 2 2 1 1 1 1 0.811
821 228 5 444 1 2 1 0 1 1 0.412
822 229 4 376 2 1 0 0 1 0 0.523
823 228 5 445 0 2 2 0 1 2 0.425
824 229 4 377 0 0 0 2 1 0 0.384
825 228 5 446 0 0 1 1 1 1 0.421
826 228 5 447 1 1 2 2 1 2 0.419
827 229 4 378 3 2 3 0 0 0 0.815
828 228 5 448 1 2 2 0 1 2 0.35
829 229 4 379 3 3 1 1 1 1 0.649
830 228 5 449 2 2 0 1 1 0 0.62
831 229 4 380 3 3 2 2 1 2 0.457
832 228 5 450 0 0 1 1 1 1 0.833
833 229 4 381 2 1 0 0 1 0 1.533
834 228 5 451 3 2 1 0 1 1 0.446
835 229 4 382 0 1 1 0 1 1 1.034
836 228 5 452 2 1 3 0 1 3 0.521
837 229 4 383 2 3 2 0 1 2 0.362
838 228 5 453 1 2 1 0 1 1 0.69
839 229 4 384 1 1 2 2 1 2 0.413
840 228 5 454 2 2 1 2 1 1 0.519
841 229 4 385 0 0 1 1 1 1 0.851
842 228 5 455 2 2 3 2 1 3 0.402
843 229 4 386 2 2 0 2 1 0 0.788
844 228 5 456 2 1 1 0 1 1 0.558
845 228 5 457 1 1 1 2 0 3 0.695
846 229 4 387 0 2 1 0 1 1 1.748
847 229 4 388 3 0 2 0 1 2 0.346
848 228 5 458 0 2 1 0 0 2 0.636
849 228 5 459 3 3 3 2 1 3 0.39
850 229 4 389 2 1 0 0 1 0 1.002
851 228 5 460 1 1 3 1 1 3 0.324
852 229 4 390 2 3 0 0 1 0 0.523
853 228 5 461 0 0 3 2 1 3 0.325
854 229 4 391 0 0 3 1 1 3 0.365
855 228 5 462 3 3 2 2 1 2 0.439
856 229 4 392 2 0 0 0 1 0 0.628
857 228 5 463 2 1 3 0 1 3 0.434
858 229 4 393 0 0 1 2 1 1 0.804
859 228 5 464 2 2 1 1 1 1 0.493
860 229 4 394 3 3 3 1 1 3 0.372
861 228 5 465 2 0 3 0 1 3 0.326
862 229 4 395 3 0 0 0 1 0 0.964
863 228 5 466 1 1 1 2 1 1 0.601
864 229 4 396 2 2 2 2 1 2 0.433
865 228 5 467 2 3 2 0 1 2 1.023
866 229 4 397 1 1 1 1 1 1 0.591
867 228 5 468 3 3 2 1 1 2 0.326
868 229 4 398 1 2 3 0 1 3 0.543
869 228 5 469 0 0 0 1 1 0 1.094
870 229 4 399 1 2 2 0 1 2 0.385
871 228 5 470 1 1 1 1 1 1 1.081
872 228 5 471 0 0 0 1 1 0 0.861
873 228 5 472 1 2 1 0 1 1 0.537
874 228 5 473 1 1 2 2 1 2 1.843
875 228 5 474 3 2 3 0 1 3 0.444
876 228 5 475 0 0 3 2 1 3 0.378
877 228 5 476 0 0 0 2 1 0 0.778
878 228 5 477 2 0 2 0 1 2 0.65
879 228 5 478 3 3 0 1 1 0 0.83
880 228 5 479 1 1 1 2 1 1 0.781
881 229 5 400 1 1 2 2 1 2 2.05
882 229 5 401 1 1 3 2 1 3 0.319
883 229 5 402 3 0 0 0 0 2 0.408
884 229 5 403 2 3 3 0 1 3 0.298
885 229 5 404 0 0 2 2 1 2 1.095
886 229 5 405 2 2 1 1 0 3 0.501
887 229 5 406 3 2 3 0 0 1 0.874
888 229 5 407 0 0 2 2 1 2 0.782
889 229 5 408 0 0 0 1 1 0 0.566
890 229 5 409 1 1 3 2 0 1 0.776
891 229 5 410 1 1 2 1 1 2 0.548
892 229 5 411 0 2 2 0 0 0 0.685
893 229 5 412 2 2 2 1 1 2 0.669
894 229 5 413 1 1 2 1 1 2 0.435
895 229 5 414 1 0 3 0 1 3 0.304
896 229 5 415 2 2 1 1 1 1 0.746
897 229 5 416 3 3 1 2 0 3 1.021
898 229 5 417 1 1 1 1 1 1 0.713
899 229 5 418 1 1 3 2 1 3 0.278
900 229 5 419 2 2 2 1 1 2 0.52
901 229 5 420 3 2 3 0 1 3 0.314
902 229 5 421 0 0 3 2 1 3 0.357
903 229 5 422 0 0 2 1 1 2 0.589
904 229 5 423 1 1 3 2 1 3 0.359
905 229 5 424 3 3 2 2 1 2 1.602
906 229 5 425 1 0 2 0 1 2 0.374
907 229 5 426 3 0 3 0 0 1 1.622
908 229 5 427 1 2 2 0 0 3 0.636
909 229 5 428 3 3 0 2 1 0 0.767
910 229 5 429 3 0 3 0 1 3 0.352
911 229 5 430 1 0 1 0 1 1 0.744
912 229 5 431 3 3 0 2 1 0 0.82
913 229 5 432 0 0 2 1 1 2 0.435
914 229 5 433 3 3 0 1 1 0 0.856
915 229 5 434 1 0 1 0 1 1 0.607
916 229 5 435 1 0 2 0 1 2 0.398
917 229 5 436 3 3 2 2 1 2 0.679
918 229 5 437 2 2 2 1 1 2 0.353
919 229 5 438 3 3 0 2 1 0 0.809
920 229 5 439 0 0 0 2 1 0 0.528
921 229 5 440 3 3 2 1 1 2 0.514
922 229 5 441 0 1 3 0 1 3 0.364
923 229 5 442 1 0 0 0 1 0 0.563
924 229 5 443 3 3 1 1 1 1 1.073
925 229 5 444 1 2 3 0 1 3 0.496
926 229 5 445 0 0 0 1 1 0 0.451
927 229 5 446 2 2 1 2 0 0 1.337
928 229 5 447 1 0 0 0 1 0 0.761
929 229 5 448 1 1 0 2 1 0 0.372
930 229 5 449 2 2 0 1 1 0 0.403
931 229 5 450 0 1 0 0 0 2 2.578
932 229 5 451 0 2 0 0 1 0 0.814
933 229 5 452 0 0 1 1 1 1 0.645
934 229 5 453 2 2 2 1 1 2 0.506
935 229 5 454 2 2 0 2 1 0 0.687
936 229 5 455 3 3 1 2 1 1 0.582
937 229 5 456 1 1 0 2 0 1 2.161
938 229 5 457 2 2 0 1 1 0 0.724
939 229 5 458 1 1 0 2 1 0 0.45
940 229 5 459 1 1 1 1 1 1 1.423
941 229 5 460 2 2 0 2 1 0 0.522
942 229 5 461 2 2 2 1 1 2 0.452
943 229 5 462 3 2 2 0 1 2 0.729
944 229 5 463 1 1 0 1 1 0 0.58
945 229 5 464 0 0 2 1 1 2 0.428
946 229 5 465 2 0 2 0 1 2 0.65
947 229 5 466 0 0 3 2 1 3 0.339
948 229 5 467 2 0 3 0 1 3 0.307
949 229 5 468 3 1 2 0 1 2 0.389
950 229 5 469 1 1 0 2 1 0 0.527
951 229 5 470 1 1 2 2 1 2 0.395
952 229 5 471 3 3 2 2 1 2 0.556
953 229 5 472 3 3 3 1 1 3 0.324
954 229 5 473 0 0 1 2 1 1 0.799
955 229 5 474 0 0 0 1 1 0 0.471
956 229 5 475 1 1 1 2 0 0 0.734
957 229 5 476 2 2 2 2 1 2 0.43
958 229 5 477 0 1 3 0 1 3 0.381
959 229 5 478 0 0 2 2 1 2 0.527
960 229 5 479 2 2 3 1 1 3 0.401
961 232 0 0 1 1 1 2 1 1 1.272
962 232 0 1 3 3 1 1 1 1 0.847
963 232 0 2 3 3 2 1 1 2 1.083
964 232 0 3 2 0 1 0 1 1 1.022
965 232 0 4 2 2 0 1 1 0 2.707
966 232 0 5 1 2 2 0 0 0 1.308
967 232 0 6 0 0 2 2 1 2 1.182
968 232 0 7 0 0 3 1 1 3 0.911
969 232 0 8 2 2 3 2 0 1 2.571
970 232 0 9 0 2 2 0 1 2 0.925
971 232 0 10 3 3 0 2 1 0 1.192
972 232 0 11 1 1 3 1 0 0 1.767
973 232 0 12 3 3 1 2 1 1 0.936
974 232 0 13 1 1 0 2 0 3 1.235
975 232 0 14 2 3 3 0 1 3 1.253
976 232 0 15 0 0 1 2 0 0 2.581
977 232 0 16 0 1 2 0 0 1 1.493
978 232 0 17 3 3 2 2 0 3 2.975
979 232 0 18 2 1 3 0 0 0 1.698
980 232 0 19 0 2 2 0 0 3 1.827
981 232 0 20 0 1 1 0 1 1 1.903
982 232 0 21 1 1 1 2 1 1 0.695
983 232 0 22 1 1 2 2 1 2 1.515
984 232 0 23 0 0 0 1 1 0 1.038
985 232 0 24 1 2 0 0 1 0 1.667
986 232 0 25 1 1 1 1 1 1 0.786
987 232 0 26 0 0 2 2 1 2 0.818
988 232 0 27 1 2 1 0 1 1 1.007
989 232 0 28 1 2 1 0 1 1 0.884
990 232 0 29 2 1 2 0 1 2 1.023
991 232 0 30 0 0 1 1 1 1 0.788
992 232 0 31 0 0 2 1 1 2 0.818
993 232 0 32 2 2 0 2 0 3 0.88
994 232 0 33 2 0 3 0 0 1 1.054
995 232 0 34 0 1 1 0 1 1 0.87
996 232 0 35 0 0 3 1 0 0 0.786
997 232 0 36 2 2 0 1 0 3 1.177
998 232 0 37 1 1 3 1 1 3 0.812
999 232 0 38 1 2 2 0 0 0 1.113
1000 232 0 39 2 2 0 1 2 -1 1.806
1001 232 0 40 0 1 1 0 0 2 1.513
1002 232 0 41 0 2 1 0 0 2 1.345
1003 232 0 42 0 0 1 2 0 0 1.68
1004 232 0 43 0 2 2 0 1 2 1.026
1005 232 0 44 3 3 3 1 1 3 0.839
1006 232 0 45 0 0 2 2 0 0 1.637
1007 232 0 46 3 3 1 1 0 3 1.096
1008 232 0 47 3 3 3 2 0 2 2.113
1009 232 0 48 0 0 3 2 0 1 1.156
1010 232 0 49 3 3 3 1 1 3 0.954
1011 232 0 50 3 3 1 1 1 1 1.297
1012 232 0 51 0 0 0 1 1 0 0.925
1013 232 0 52 1 1 2 1 0 0 2.262
1014 232 0 53 2 2 0 1 1 0 0.85
1015 232 0 54 1 1 1 2 1 1 1.184
1016 232 0 55 1 1 1 2 1 1 1.027
1017 232 0 56 1 1 3 2 0 2 0.698
1018 232 0 57 2 0 3 0 1 3 1.023
1019 232 0 58 2 2 3 1 1 3 0.948
1020 232 0 59 2 2 2 2 0 3 0.798
1021 232 0 60 2 2 1 1 0 2 1.214
1022 232 0 61 1 1 2 1 1 2 0.88
1023 232 0 62 0 0 2 1 1 2 0.651
1024 232 0 63 3 1 2 0 1 2 0.798
1025 232 0 64 1 1 2 2 0 1 1.901
1026 232 0 65 3 3 2 1 0 3 1.206
1027 232 0 66 1 1 1 2 0 2 0.892
1028 232 0 67 3 1 3 0 1 3 1.353
1029 232 0 68 1 2 3 0 0 2 1.54
1030 232 0 69 0 0 3 2 0 1 1.564
1031 232 0 70 2 2 1 1 1 1 0.834
1032 232 0 71 0 0 0 2 1 0 1.008
1033 232 0 72 0 0 1 2 0 0 0.76
1034 232 0 73 0 1 3 0 0 1 0.698
1035 232 0 74 0 0 1 1 0 2 1.102
1036 232 0 75 0 1 0 0 0 3 1.349
1037 232 0 76 3 3 3 2 0 2 0.836
1038 232 0 77 1 1 2 1 0 1 0.74
1039 232 0 78 2 2 1 1 1 1 1.335
1040 232 0 79 0 0 1 2 1 1 0.563
1041 233 0 0 1 1 2 2 1 2 1.612
1042 233 0 1 0 0 0 2 0 1 1.58
1043 233 0 2 2 2 0 2 0 3 1.741
1044 233 0 3 0 0 2 1 0 3 3.381
1045 233 0 4 2 0 2 0 1 2 1.01
1046 233 0 5 0 0 3 1 1 3 0.489
1047 233 0 6 2 2 0 2 0 3 0.941
1048 233 0 7 3 3 2 1 1 2 1.042
1049 233 0 8 0 0 2 1 1 2 0.735
1050 233 0 9 0 0 3 1 1 3 0.432
1051 233 0 10 0 0 2 1 1 2 1.06
1052 233 0 11 1 0 3 0 1 3 1.609
1053 233 0 12 1 1 0 1 1 0 1.283
1054 233 0 13 0 0 2 1 1 2 1.169
1055 233 0 14 1 1 2 1 0 3 0.666
1056 233 0 15 0 0 1 1 1 1 0.905
1057 233 0 16 0 0 0 2 1 0 0.972
1058 233 0 17 0 0 3 1 1 3 0.507
1059 233 0 18 0 0 3 2 1 3 0.438
1060 233 0 19 1 2 2 0 1 2 1.033
1061 233 0 20 2 2 0 2 1 0 1.065
1062 233 0 21 2 3 0 0 1 0 0.926
1063 233 0 22 0 0 3 2 1 3 0.523
1064 233 0 23 1 2 1 0 0 3 0.811
1065 233 0 24 2 2 1 1 1 1 1.116
1066 232 1 80 3 3 2 1 1 2 1.101
1067 233 0 25 3 3 0 1 1 0 1.207
1068 232 1 81 3 3 0 1 1 0 0.816
1069 233 0 26 0 0 0 2 1 0 1.033
1070 232 1 82 0 0 1 2 0 0 1.199
1071 233 0 27 2 1 0 0 0 3 0.527
1072 232 1 83 0 0 0 2 1 0 0.772
1073 233 0 28 2 1 0 0 0 3 0.987
1074 232 1 84 3 3 3 2 0 2 1.204
1075 233 0 29 0 2 3 0 0 0 1.006
1076 232 1 85 3 3 1 1 1 1 0.87
1077 233 0 30 3 3 2 1 1 2 0.882
1078 232 1 86 2 2 1 2 0 3 1.188
1079 233 0 31 1 1 3 2 1 3 0.593
1080 232 1 87 3 0 1 0 0 0 1.256
1081 233 0 32 0 0 2 2 1 2 0.833
1082 233 0 33 2 2 2 1 1 2 0.902
1083 232 1 88 3 3 1 2 0 3 2.411
1084 233 0 34 1 1 2 2 0 3 0.603
1085 232 1 89 0 0 1 2 1 1 1.108
1086 233 0 35 1 1 1 2 0 2 1.399
1087 232 1 90 2 2 1 2 0 0 0.874
1088 232 1 91 3 3 1 2 0 2 0.299
1089 233 0 36 2 2 0 2 1 0 1.102
1090 232 1 92 2 2 1 1 0 0 0.543
1091 233 0 37 3 1 3 0 1 3 0.619
1092 232 1 93 2 2 3 1 1 3 0.617
1093 233 0 38 3 1 1 0 0 2 0.785
1094 232 1 94 0 0 0 2 0 2 0.816
1095 233 0 39 3 3 2 1 0 3 0.828
1096 233 0 40 0 0 3 1 1 3 0.59
1097 232 1 95 1 1 3 1 0 1 0.945
1098 232 1 96 0 2 3 0 0 1 0.845
1099 233 0 41 1 0 0 0 1 0 1.069
1100 232 1 97 1 1 2 1 0 0 0.684
1101 233 0 42 1 2 1 0 0 0 1.146
1102 232 1 98 3 3 0 1 0 1 0.785
1103 233 0 43 0 0 1 2 1 1 1.002
1104 232 1 99 1 1 3 2 0 1 0.901
1105 233 0 44 1 1 1 1 0 0 0.577
1106 232 1 100 0 0 0 1 1 0 1.202
1107 233 0 45 3 3 0 1 0 3 0.835
1108 233 0 46 1 1 3 1 1 3 0.788
1109 232 1 101 3 3 2 1 1 2 0.849
1110 232 1 102 3 3 2 2 1 2 0.764
1111 233 0 47 2 2 1 2 1 1 1.209
1112 232 1 103 0 0 3 1 1 3 0.73
1113 233 0 48 3 3 2 1 1 2 0.912
1114 233 0 49 2 0 2 0 1 2 0.899
1115 232 1 104 2 0 1 0 0 0 1.563
1116 232 1 105 3 3 0 1 1 0 0.785
1117 233 0 50 3 1 2 0 1 2 0.926
1118 233 0 51 2 2 2 1 1 2 0.624
1119 232 1 106 0 0 0 2 1 0 1.169
1120 233 0 52 0 0 0 2 1 0 1.062
1121 232 1 107 0 0 2 2 1 2 0.787
1122 233 0 53 0 0 0 2 1 0 0.893
1123 232 1 108 0 0 2 1 1 2 0.703
1124 233 0 54 3 3 3 1 1 3 0.521
1125 232 1 109 0 0 0 1 1 0 0.976
1126 232 1 110 1 1 0 1 1 0 0.84
1127 233 0 55 2 2 3 1 0 1 1.762
1128 232 1 111 1 1 2 2 1 2 0.791
1129 233 0 56 3 3 3 1 1 3 0.473
1130 232 1 112 3 3 2 1 1 2 0.79
1131 233 0 57 1 2 1 0 0 2 1.756
1132 232 1 113 0 0 3 1 1 3 0.691
1133 233 0 58 3 3 0 2 1 0 0.966
1134 232 1 114 3 1 2 0 0 0 1.236
1135 233 0 59 2 2 0 1 1 0 1.333
1136 232 1 115 1 0 3 0 0 2 0.597
1137 233 0 60 0 1 0 0 0 2 0.76
1138 232 1 116 0 2 1 0 0 3 0.909
1139 233 0 61 0 0 1 1 0 0 0.819
1140 232 1 117 3 1 1 0 0 0 1.21
1141 233 0 62 2 2 2 2 1 2 1.558
1142 232 1 118 1 1 3 1 1 3 0.684
1143 233 0 63 3 3 0 2 1 0 1.1
1144 232 1 119 1 1 3 1 1 3 0.781
1145 233 0 64 3 3 3 2 1 3 0.593
1146 232 1 120 2 2 1 1 0 2 1.051
1147 233 0 65 3 3 1 1 1 1 1.103
1148 232 1 121 1 1 2 2 1 2 1.317
1149 233 0 66 2 2 3 2 1 3 1.381
1150 232 1 122 2 2 2 1 0 3 1.04
1151 233 0 67 0 0 2 2 1 2 0.889
1152 232 1 123 2 0 2 0 0 0 1.096
1153 233 0 68 3 1 3 0 1 3 0.644
1154 232 1 124 3 3 0 1 0 3 1.214
1155 233 0 69 1 1 3 1 1 3 1.32
1156 232 1 125 3 3 2 2 1 2 1.028
1157 233 0 70 2 2 2 2 0 0 1.231
1158 232 1 126 2 2 2 2 1 2 0.844
1159 232 1 127 1 1 3 2 1 3 0.729
1160 233 0 71 1 1 3 2 0 1 1.429
1161 232 1 128 0 0 2 1 1 2 0.746
1162 233 0 72 0 0 0 1 1 0 1.249
1163 232 1 129 3 3 3 1 1 3 0.744
1164 233 0 73 3 3 0 1 1 0 1.062
1165 233 0 74 0 0 2 1 1 2 0.851
1166 232 1 130 0 0 1 2 0 0 1.674
1167 232 1 131 3 3 1 1 1 1 0.699
1168 233 0 75 3 0 1 0 1 1 1.263
1169 232 1 132 3 3 2 2 1 2 1.198
1170 233 0 76 0 0 2 1 1 2 0.901
1171 232 1 133 2 0 3 0 1 3 0.701
1172 233 0 77 0 0 2 1 1 2 0.76
1173 232 1 134 2 2 1 1 1 1 0.862
1174 233 0 78 0 1 0 0 0 3 2.072
1175 232 1 135 2 2 3 1 1 3 1.145
1176 233 0 79 3 2 0 0 1 0 1.132
1177 232 1 136 3 3 1 2 1 1 0.828
1178 232 1 137 3 1 0 0 1 0 0.937
1179 232 1 138 3 3 0 2 1 0 1.076
1180 232 1 139 1 1 3 1 0 1 1.047
1181 232 1 140 2 2 2 1 1 2 0.815
1182 232 1 141 2 2 3 2 1 3 0.846
1183 232 1 142 3 3 0 2 1 0 0.86
1184 232 1 143 2 2 0 1 1 0 1.32
1185 232 1 144 1 1 3 2 0 1 0.789
1186 233 1 80 3 3 3 2 1 3 0.723
1187 232 1 145 2 2 2 1 1 2 0.934
1188 233 1 81 0 1 2 0 1 2 0.82
1189 232 1 146 3 0 2 0 1 2 0.687
1190 233 1 82 0 0 2 2 1 2 0.973
1191 232 1 147 1 1 2 1 1 2 0.577
1192 232 1 148 1 1 2 2 1 2 0.649
1193 233 1 83 2 2 2 2 0 0 1.903
1194 232 1 149 1 1 2 1 1 2 0.525
1195 233 1 84 2 2 0 1 1 0 0.826
1196 232 1 150 0 0 1 2 1 1 0.887
1197 233 1 85 2 2 0 1 1 0 0.561
1198 232 1 151 2 2 3 2 0 2 0.9
1199 233 1 86 2 2 2 1 1 2 0.863
1200 232 1 152 3 1 2 0 0 1 0.818
1201 233 1 87 2 2 3 2 1 3 0.559
1202 232 1 153 1 1 0 1 1 0 0.883
1203 233 1 88 3 1 3 0 1 3 0.774
1204 232 1 154 3 2 2 0 0 0 1.165
1205 233 1 89 3 0 1 0 1 1 0.926
1206 233 1 90 0 0 2 2 1 2 0.987
1207 232 1 155 1 1 2 2 1 2 1.573
1208 233 1 91 2 2 0 2 1 0 1.205
1209 232 1 156 0 0 1 2 1 1 1.161
1210 233 1 92 3 1 3 0 1 3 0.66
1211 232 1 157 2 2 0 1 1 0 0.808
1212 233 1 93 1 1 3 1 1 3 0.368
1213 232 1 158 0 0 3 1 1 3 0.949
1214 233 1 94 2 2 1 1 1 1 1.366
1215 232 1 159 3 2 0 0 0 1 1.133
1216 233 1 95 0 0 3 2 1 3 0.538
1217 233 1 96 0 0 3 1 1 3 0.417
1218 233 1 97 0 0 1 1 1 1 1.014
1219 233 1 98 3 3 1 1 1 1 0.9
1220 233 1 99 3 3 1 2 1 1 0.601
1221 233 1 100 3 2 2 0 1 2 1.039
1222 233 1 101 1 1 3 2 1 3 0.463
1223 233 1 102 2 2 0 2 1 0 0.963
1224 233 1 103 2 2 3 1 1 3 0.564
1225 233 1 104 3 1 2 0 1 2 0.858
1226 233 1 105 0 0 0 1 1 0 0.846
1227 233 1 106 2 0 1 0 1 1 1.251
1228 233 1 107 3 1 2 0 1 2 0.857
1229 233 1 108 0 1 2 0 1 2 1.333
1230 233 1 109 1 1 1 2 1 1 0.843
1231 233 1 110 1 1 1 2 1 1 0.65
1232 233 1 111 2 1 0 0 1 0 1.373
1233 233 1 112 3 3 2 1 1 2 0.839
1234 233 1 113 1 1 1 2 0 3 0.79
1235 233 1 114 3 0 0 0 1 0 0.889
1236 233 1 115 0 1 0 0 1 0 1.716
1237 233 1 116 1 1 0 1 1 0 0.425
1238 233 1 117 1 2 0 0 1 0 0.573
1239 233 1 118 1 2 1 0 1 1 1.339
1240 233 1 119 0 0 1 2 0 3 0.848
1241 233 1 120 1 1 3 2 1 3 0.699
1242 233 1 121 0 0 1 1 1 1 0.805
1243 233 1 122 1 1 1 2 1 1 0.661
1244 233 1 123 0 0 2 1 1 2 1.088
1245 232 2 160 0 1 1 0 0 0 1.068
1246 232 2 161 1 2 3 0 0 1 0.515
1247 233 1 124 2 3 2 0 1 2 0.932
1248 232 2 162 3 3 2 1 1 2 0.654
1249 233 1 125 3 3 3 2 1 3 0.561
1250 232 2 163 0 1 2 0 1 2 0.464
1251 233 1 126 1 2 3 0 1 3 0.479
1252 232 2 164 3 3 2 2 1 2 0.269
1253 233 1 127 0 0 3 2 1 3 0.405
1254 232 2 165 2 2 2 2 0 0 0.129
1255 233 1 128 1 1 0 1 1 0 1.01
1256 232 2 166 2 2 3 2 0 1 0.093
1257 232 2 167 0 0 3 1 0 2 0.008
1258 233 1 129 0 0 1 1 1 1 0.738
1259 232 2 168 2 2 1 2 1 1 0.328
1260 233 1 130 0 0 3 2 1 3 0.454
1261 232 2 169 3 2 1 0 1 1 0.423
1262 233 1 131 2 2 0 2 0 2 1.276
1263 232 2 170 2 2 1 1 1 1 0.259
1264 233 1 132 1 0 3 0 1 3 0.478
1265 232 2 171 0 0 0 1 0 1 0.659
1266 233 1 133 2 2 0 2 0 2 1.098
1267 232 2 172 2 2 0 2 0 2 0.651
1268 233 1 134 2 2 2 1 1 2 1.234
1269 232 2 173 2 2 3 2 1 3 0.468
1270 232 2 174 2 2 3 2 1 3 0.32
1271 233 1 135 2 2 0 1 1 0 1.089
1272 232 2 175 1 1 1 2 0 3 0.689
1273 233 1 136 0 0 2 1 1 2 0.772
1274 232 2 176 1 1 3 2 0 0 0.44
1275 233 1 137 3 3 2 2 0 3 0.567
1276 232 2 177 2 0 1 0 1 1 0.246
1277 233 1 138 0 0 0 1 1 0 0.889
1278 232 2 178 2 2 3 2 0 1 0.137
1279 232 2 179 2 2 1 1 0 2 0.226
1280 233 1 139 0 0 2 2 1 2 0.751
1281 232 2 180 0 0 0 1 1 0 0.615
1282 233 1 140 2 0 0 0 0 3 0.911
1283 232 2 181 1 1 0 2 1 0 0.253
1284 233 1 141 0 0 0 2 1 0 0.703
1285 232 2 182 2 2 3 2 1 3 0.113
1286 233 1 142 2 2 0 2 0 2 0.923
1287 232 2 183 2 1 1 0 0 3 0.646
1288 233 1 143 2 2 3 2 1 3 0.787
1289 232 2 184 3 3 3 2 0 1 0.527
1290 233 1 144 2 0 3 0 1 3 0.474
1291 232 2 185 1 2 3 0 0 0 0.073
1292 232 2 186 0 0 0 1 0 2 0.853
1293 233 1 145 3 3 0 2 1 0 1.39
1294 232 2 187 0 0 2 1 0 3 0.788
1295 233 1 146 0 0 0 1 1 0 1.727
1296 232 2 188 2 2 1 1 1 1 0.517
1297 233 1 147 2 0 1 0 0 3 0.7
1298 232 2 189 2 2 1 1 1 1 0.013
1299 233 1 148 1 1 0 2 0 3 1.22
1300 232 2 190 3 3 3 1 0 2 0.934
1301 233 1 149 0 0 2 2 1 2 0.889
1302 232 2 191 2 2 0 1 1 0 0.466
1303 232 2 192 2 2 0 1 1 0 0.107
1304 233 1 150 2 0 3 0 1 3 0.396
1305 233 1 151 1 0 0 0 1 0 0.953
1306 232 2 193 0 0 1 1 1 1 1.554
1307 233 1 152 0 0 3 1 1 3 0.362
1308 232 2 194 1 0 3 0 0 1 0.404
1309 233 1 153 1 2 3 0 1 3 0.56
1310 232 2 195 2 2 2 2 1 2 1.077
1311 233 1 154 0 0 2 1 1 2 0.814
1312 232 2 196 2 2 2 2 1 2 0.987
1313 233 1 155 3 3 0 1 1 0 0.868
1314 232 2 197 1 1 3 1 0 1 0.993
1315 233 1 156 1 0 2 0 1 2 0.824
1316 232 2 198 3 1 0 0 0 1 0.571
1317 233 1 157 0 0 3 2 1 3 0.424
1318 232 2 199 3 3 2 2 1 2 1.159
1319 233 1 158 0 0 1 1 1 1 0.843
1320 232 2 200 3 3 0 2 1 0 1.193
1321 233 1 159 2 2 0 1 1 0 0.76
1322 232 2 201 0 1 1 0 1 1 0.968
1323 232 2 202 1 0 3 0 2 -1 1.2
1324 232 2 203 0 0 1 2 0 0 1.359
1325 232 2 204 1 1 2 2 0 1 0.51
1326 232 2 205 1 0 3 0 0 1 1.465
1327 232 2 206 2 3 1 0 0 2 0.498
1328 232 2 207 3 3 0 2 0 1 0.461
1329 232 2 208 1 1 1 1 1 1 0.362
1330 232 2 209 3 3 1 1 1 1 0.262
1331 232 2 210 1 0 0 0 1 0 0.455
1332 232 2 211 3 1 1 0 0 0 0.112
1333 232 2 212 2 1 0 0 0 3 0.409
1334 232 2 213 3 3 2 1 1 2 0.184
1335 233 2 160 2 2 3 2 1 3 0.48
1336 232 2 214 2 2 2 2 1 2 0.302
1337 233 2 161 3 1 1 0 0 3 0.593
1338 232 2 215 2 2 2 1 0 1 0.509
1339 233 2 162 3 3 0 1 1 0 0.859
1340 232 2 216 0 0 0 1 1 0 0.632
1341 233 2 163 2 2 0 1 1 0 0.623
1342 232 2 217 2 2 2 2 0 1 0.254
1343 232 2 218 2 2 3 2 0 1 0.246
1344 233 2 164 2 2 2 1 1 2 1.596
1345 232 2 219 2 3 1 0 0 0 1.291
1346 233 2 165 1 1 2 2 0 3 0.576
1347 233 2 166 1 1 0 2 1 0 1.084
1348 232 2 220 0 1 1 0 1 1 1.146
1349 232 2 221 2 3 2 0 1 2 0.171
1350 233 2 167 0 1 2 0 1 2 0.857
1351 232 2 222 0 0 1 2 0 0 0.082
1352 233 2 168 0 0 1 2 1 1 1.055
1353 232 2 223 1 2 0 0 1 0 0.124
1354 232 2 224 3 3 2 2 1 2 0.452
1355 233 2 169 2 2 0 2 1 0 0.983
1356 232 2 225 1 2 1 0 1 1 0.141
1357 233 2 170 2 1 1 0 0 2 0.646
1358 232 2 226 2 2 0 1 1 0 0.034
1359 233 2 171 0 2 3 0 1 3 0.767
1360 232 2 227 3 2 1 0 0 2 1.308
1361 233 2 172 2 2 0 1 1 0 0.647
1362 232 2 228 0 0 0 2 1 0 0.59
1363 233 2 173 1 2 1 0 1 1 0.684
1364 232 2 229 3 3 3 1 0 0 0.083
1365 233 2 174 3 3 3 1 1 3 0.391
1366 232 2 230 1 1 0 2 0 1 0.097
1367 233 2 175 3 3 2 1 1 2 0.942
1368 232 2 231 1 1 3 2 0 0 0.318
1369 233 2 176 3 0 0 0 1 0 0.647
1370 233 2 177 1 1 3 1 1 3 0.339
1371 232 2 232 1 2 3 0 0 0 4.928
1372 233 2 178 1 1 2 1 1 2 1.138
1373 232 2 233 3 3 2 2 0 0 0.191
1374 233 2 179 1 1 1 1 1 1 0.684
1375 232 2 234 3 3 3 2 0 1 0.248
1376 233 2 180 1 2 3 0 1 3 0.495
1377 232 2 235 1 1 1 1 0 2 0.732
1378 233 2 181 2 2 2 2 0 3 0.674
1379 232 2 236 3 3 2 2 1 2 2.082
1380 233 2 182 2 3 1 0 1 1 0.672
1381 232 2 237 2 1 3 0 0 0 0.049
1382 232 2 238 1 1 3 1 0 0 0.057
1383 233 2 183 2 2 0 1 1 0 2.531
1384 232 2 239 3 3 3 1 0 2 0.084
1385 233 2 184 0 1 2 0 0 3 0.459
1386 232 3 240 0 0 1 2 1 1 0.576
1387 233 2 185 3 3 3 2 1 3 0.46
1388 232 3 241 0 1 2 0 0 3 0.533
1389 233 2 186 2 2 3 1 1 3 0.39
1390 232 3 242 3 3 1 1 0 2 0.064
1391 233 2 187 0 0 2 2 1 2 0.934
1392 232 3 243 0 2 0 0 1 0 1.019
1393 233 2 188 3 0 3 0 1 3 0.503
1394 232 3 244 2 1 2 0 0 0 0.064
1395 232 3 245 2 2 2 2 0 3 0.189
1396 233 2 189 0 0 0 2 1 0 1.059
1397 233 2 190 3 3 3 2 1 3 0.418
1398 232 3 246 1 1 1 1 0 0 0.628
1399 233 2 191 2 2 1 2 1 1 0.744
1400 232 3 247 0 0 1 1 1 1 0.795
1401 232 3 248 1 1 2 1 0 1 0.297
1402 233 2 192 1 1 0 2 1 0 1.379
1403 232 3 249 0 0 1 1 0 2 0.125
1404 233 2 193 1 1 2 1 0 3 0.478
1405 232 3 250 0 1 1 0 0 0 0.981
1406 233 2 194 2 2 3 1 1 3 0.476
1407 232 3 251 1 1 1 2 0 0 0.546
1408 233 2 195 1 1 2 1 1 2 0.957
1409 232 3 252 2 2 1 2 0 2 0.014
1410 232 3 253 2 3 1 0 0 3 0.059
1411 233 2 196 0 1 0 0 1 0 0.99
1412 232 3 254 2 2 3 1 0 1 0.167
1413 233 2 197 2 2 2 1 1 2 1.197
1414 232 3 255 3 0 2 0 0 1 0.19
1415 233 2 198 2 2 1 1 1 1 0.774
1416 232 3 256 3 0 0 0 0 2 0.676
1417 233 2 199 1 1 1 2 0 3 0.623
1418 232 3 257 3 3 0 1 1 0 0.57
1419 233 2 200 3 3 1 2 1 1 0.818
1420 232 3 258 0 0 3 2 0 0 0.418
1421 232 3 259 1 1 0 1 0 1 0.303
1422 233 2 201 3 3 0 1 1 0 0.784
1423 232 3 260 0 1 2 0 1 2 0.034
1424 233 2 202 3 3 2 1 1 2 0.735
1425 232 3 261 3 2 1 0 0 2 0.027
1426 233 2 203 2 0 3 0 1 3 0.559
1427 232 3 262 2 3 1 0 0 3 0.567
1428 233 2 204 1 1 3 2 1 3 0.377
1429 232 3 263 3 3 0 2 1 0 0.467
1430 233 2 205 3 3 2 1 1 2 0.806
1431 232 3 264 3 3 0 1 0 2 1.004
1432 233 2 206 1 1 2 1 1 2 0.916
1433 232 3 265 3 3 1 2 1 1 0.104
1434 232 3 266 3 3 0 2 0 2 0.434
1435 233 2 207 3 2 0 0 0 3 0.544
1436 233 2 208 1 1 3 1 1 3 0.356
1437 232 3 267 1 2 0 0 0 3 0.497
1438 233 2 209 2 0 0 0 1 0 0.875
1439 232 3 268 1 0 0 0 2 -1 2.11
1440 233 2 210 0 1 2 0 0 3 0.431
1441 232 3 269 1 1 1 2 1 1 0.163
1442 233 2 211 2 2 2 2 0 3 0.624
1443 232 3 270 2 2 3 1 0 2 0.936
1444 233 2 212 3 3 2 1 1 2 0.737
1445 233 2 213 3 3 1 2 0 3 0.516
1446 232 3 271 1 1 0 2 1 0 1.031
1447 233 2 214 3 3 2 1 1 2 0.912
1448 233 2 215 2 1 0 0 0 3 0.435
1449 233 2 216 2 2 1 2 1 1 0.908
1450 233 2 217 3 3 0 2 1 0 0.778
1451 232 3 272 2 2 2 1 0 0 10.892
1452 233 2 218 2 0 1 0 1 1 0.977
1453 232 3 273 1 1 3 1 0 2 0.083
1454 233 2 219 0 0 2 2 1 2 0.739
1455 233 2 220 3 3 3 1 1 3 0.379
1456 233 2 221 2 0 3 0 1 3 0.401
1457 232 3 274 2 2 0 2 0 1 6.768
1458 233 2 222 0 0 1 2 1 1 1.352
1459 233 2 223 3 2 3 0 1 3 0.594
1460 232 3 275 0 0 0 2 2 -1 0.317
1461 232 3 276 3 3 0 2 0 2 0.004
1462 233 2 224 3 3 1 1 1 1 0.912
1463 232 3 277 2 1 1 0 0 3 0.274
1464 233 2 225 0 0 3 2 1 3 0.365
1465 232 3 278 3 3 1 2 0 0 0.025
1466 233 2 226 3 3 2 2 1 2 0.846
1467 232 3 279 3 2 1 0 0 3 0.294
1468 233 2 227 1 1 0 1 1 0 1.003
1469 232 3 280 3 3 2 1 0 0 1.673
1470 233 2 228 3 3 1 2 1 1 0.781
1471 232 3 281 0 1 1 0 1 1 0.442
1472 233 2 229 3 0 0 0 0 3 1.221
1473 232 3 282 1 0 1 0 1 1 0.309
1474 232 3 283 2 3 1 0 0 0 0.548
1475 233 2 230 1 1 1 2 0 3 1.77
1476 232 3 284 2 2 3 2 1 3 0.928
1477 233 2 231 2 0 0 0 1 0 0.897
1478 233 2 232 3 1 1 0 0 3 1.15
1479 232 3 285 0 0 0 2 0 3 2.924
1480 233 2 233 2 2 3 2 1 3 0.437
1481 232 3 286 2 3 0 0 0 1 0.033
1482 233 2 234 2 2 2 1 1 2 0.737
1483 233 2 235 0 1 3 0 1 3 0.37
1484 233 2 236 0 0 1 1 1 1 0.84
1485 232 3 287 1 1 2 2 0 1 5.185
1486 232 3 288 2 2 1 1 0 2 0.165
1487 233 2 237 3 3 0 1 1 0 1.229
1488 232 3 289 3 3 1 1 0 0 0.236
1489 233 2 238 1 1 2 1 1 2 0.74
1490 232 3 290 1 1 2 2 0 3 1.764
1491 233 2 239 2 3 1 0 1 1 1.021
1492 232 3 291 1 1 0 1 0 2 0.274
1493 232 3 292 0 0 1 1 1 1 0.325
1494 232 3 293 3 3 3 2 0 0 1.639
1495 232 3 294 1 1 2 2 0 1 0.043
1496 232 3 295 3 1 2 0 1 2 0.344
1497 232 3 296 0 0 0 1 0 2 1.399
1498 232 3 297 3 0 3 0 1 3 0.066
1499 232 3 298 2 2 3 1 1 3 3.851
1500 232 3 299 3 1 3 0 1 3 2.683
1501 233 3 240 0 0 3 2 1 3 0.447
1502 232 3 300 2 2 2 2 0 3 6.951
1503 233 3 241 3 3 1 1 1 1 0.65
1504 233 3 242 1 1 2 2 1 2 0.712
1505 232 3 301 2 2 3 2 0 0 3.47
1506 233 3 243 0 0 0 1 1 0 0.794
1507 232 3 302 3 0 3 0 0 2 0.08
1508 233 3 244 1 1 1 2 0 3 0.452
1509 232 3 303 3 1 3 0 1 3 0.459
1510 233 3 245 2 2 0 1 1 0 1.194
1511 232 3 304 3 3 0 2 0 3 1.239
1512 233 3 246 3 3 1 1 1 1 0.715
1513 232 3 305 0 0 2 1 1 2 1.048
1514 233 3 247 2 2 1 1 0 3 0.612
1515 233 3 248 2 0 2 0 1 2 0.837
1516 233 3 249 1 1 0 2 1 0 0.884
1517 232 3 306 1 1 0 1 0 3 7.612
1518 233 3 250 1 1 3 1 1 3 0.521
1519 233 3 251 0 0 2 2 1 2 0.724
1520 233 3 252 1 1 0 1 0 3 0.509
1521 232 3 307 1 1 0 1 0 2 3.914
1522 233 3 253 1 1 2 2 1 2 1.044
1523 233 3 254 2 2 2 1 0 0 0.618
1524 232 3 308 1 1 2 2 0 3 4.398
1525 233 3 255 0 0 2 2 1 2 0.654
1526 233 3 256 0 0 2 2 1 2 0.788
1527 232 3 309 1 1 3 1 0 2 3.887
1528 233 3 257 1 1 1 1 1 1 0.739
1529 232 3 310 2 3 3 0 0 1 0.978
1530 233 3 258 1 1 1 1 1 1 0.461
1531 232 3 311 2 2 1 2 0 2 0.383
1532 233 3 259 2 2 2 2 1 2 0.834
1533 232 3 312 3 0 3 0 0 0 0.528
1534 233 3 260 1 1 0 1 1 0 0.824
1535 232 3 313 2 2 0 1 0 1 0.395
1536 233 3 261 2 1 1 0 0 3 0.655
1537 232 3 314 2 2 3 2 1 3 1.053
1538 233 3 262 0 0 3 2 1 3 0.369
1539 232 3 315 1 1 1 2 0 3 0.228
1540 233 3 263 2 2 2 2 1 2 0.713
1541 233 3 264 3 3 3 1 1 3 0.466
1542 233 3 265 0 0 0 1 1 0 0.837
1543 232 3 316 0 1 2 0 0 3 5.946
1544 233 3 266 1 0 2 0 0 0 0.93
1545 232 3 317 3 3 2 2 1 2 0.117
1546 233 3 267 0 0 0 1 1 0 1.288
1547 233 3 268 2 2 3 1 1 3 0.468
1548 233 3 269 3 3 0 2 1 0 0.953
1549 233 3 270 3 2 0 0 1 0 0.931
1550 232 3 318 1 0 2 0 1 2 8.587
1551 233 3 271 3 3 2 1 1 2 0.709
1552 232 3 319 3 3 2 2 1 2 1.716
1553 233 3 272 1 2 1 0 1 1 0.719
1554 233 3 273 0 2 1 0 0 0 0.993
1555 232 4 320 1 1 3 1 0 0 1.434
1556 233 3 274 2 2 2 1 1 2 0.693
1557 232 4 321 0 0 3 1 0 1 0.772
1558 233 3 275 1 1 2 2 0 3 0.569
1559 232 4 322 1 1 2 2 1 2 0.409
1560 233 3 276 1 1 3 1 1 3 0.387
1561 232 4 323 3 3 0 1 0 3 0.021
1562 233 3 277 0 0 1 1 1 1 0.705
1563 233 3 278 1 2 0 0 1 0 0.907
1564 232 4 324 0 1 1 0 0 0 3.169
1565 233 3 279 3 0 2 0 1 2 0.727
1566 233 3 280 3 1 3 0 1 3 0.433
1567 232 4 325 1 1 1 1 0 2 2.575
1568 232 4 326 2 2 1 2 0 3 0.003
1569 233 3 281 0 0 3 2 1 3 0.376
1570 232 4 327 0 0 1 2 0 0 0.02
1571 233 3 282 0 0 1 1 1 1 0.582
1572 232 4 328 0 0 1 2 1 1 0.355
1573 233 3 283 3 1 0 0 1 0 0.797
1574 233 3 284 3 3 2 1 1 2 0.892
1575 232 4 329 2 1 2 0 0 0 4.305
1576 233 3 285 0 2 3 0 1 3 0.495
1577 233 3 286 0 0 3 1 1 3 0.304
1578 232 4 330 2 2 1 1 0 2 4.053
1579 233 3 287 2 2 2 2 0 0 1.083
1580 232 4 331 2 1 1 0 0 0 0.433
1581 233 3 288 2 2 0 1 1 0 1.347
1582 232 4 332 2 1 2 0 0 3 0.542
1583 233 3 289 1 1 2 2 1 2 0.696
1584 232 4 333 1 1 1 1 0 0 0.088
1585 233 3 290 3 3 3 1 1 3 0.314
1586 232 4 334 2 2 0 1 0 1 0.211
1587 233 3 291 0 1 2 0 0 3 0.602
1588 232 4 335 1 1 3 1 1 3 0.648
1589 233 3 292 3 3 1 1 1 1 0.803
1590 233 3 293 3 1 2 0 0 3 0.433
1591 233 3 294 1 0 3 0 1 3 0.368
1592 233 3 295 3 3 1 1 1 1 0.935
1593 233 3 296 1 0 3 0 1 3 0.352
1594 233 3 297 3 3 0 2 0 2 1.105
1595 232 4 336 1 1 3 2 0 2 14.174
1596 233 3 298 2 2 0 2 1 0 0.938
1597 232 4 337 0 0 3 2 0 0 0.419
1598 233 3 299 3 3 0 2 1 0 0.775
1599 232 4 338 0 0 2 2 1 2 0.853
1600 233 3 300 1 1 1 1 1 1 0.647
1601 232 4 339 2 2 1 2 0 3 0.542
1602 233 3 301 3 3 3 1 1 3 0.348
1603 232 4 340 0 1 0 0 0 3 0.377
1604 233 3 302 0 2 2 0 0 3 0.668
1605 232 4 341 1 2 0 0 1 0 0.169
1606 233 3 303 1 1 0 2 1 0 0.894
1607 232 4 342 0 0 1 1 0 2 0.078
1608 232 4 343 2 2 0 1 0 1 0.09
1609 233 3 304 2 3 1 0 0 3 0.514
1610 232 4 344 2 2 0 1 1 0 0.132
1611 233 3 305 0 0 3 2 1 3 0.337
1612 232 4 345 3 3 0 1 0 1 0.362
1613 233 3 306 3 3 3 2 1 3 0.731
1614 233 3 307 3 3 3 1 1 3 0.365
1615 232 4 346 0 1 3 0 0 2 1.547
1616 233 3 308 1 1 1 2 1 1 1.054
1617 233 3 309 1 1 0 2 0 3 0.566
1618 233 3 310 2 2 3 2 1 3 0.643
1619 233 3 311 0 0 2 1 1 2 0.713
1620 233 3 312 0 1 1 0 1 1 0.675
1621 233 3 313 0 0 0 1 1 0 0.814
1622 233 3 314 2 1 1 0 0 3 0.533
1623 233 3 315 3 3 1 1 1 1 0.698
1624 233 3 316 0 1 3 0 1 3 0.589
1625 233 3 317 1 1 1 2 1 1 0.638
1626 233 3 318 1 1 1 2 1 1 0.413
1627 232 4 347 1 1 1 2 0 3 27.845
1628 233 3 319 1 1 0 2 1 0 0.718
1629 232 4 348 2 1 2 0 0 0 1.196
1630 232 4 349 3 0 0 0 1 0 1.007
1631 232 4 350 0 1 3 0 1 3 0.821
1632 232 4 351 2 2 1 1 1 1 0.881
1633 232 4 352 1 1 2 1 1 2 0.988
1634 232 4 353 0 1 2 0 1 2 0.691
1635 232 4 354 1 0 0 0 1 0 0.868
1636 232 4 355 0 1 1 0 1 1 0.831
1637 232 4 356 2 2 0 2 1 0 0.878
1638 232 4 357 1 1 1 2 1 1 0.746
1639 232 4 358 0 0 3 2 1 3 0.908
1640 233 4 320 3 3 0 2 1 0 0.848
1641 232 4 359 3 0 2 0 1 2 0.677
1642 233 4 321 1 1 0 2 1 0 0.415
1643 232 4 360 0 0 3 1 1 3 0.647
1644 233 4 322 3 2 0 0 1 0 0.514
1645 232 4 361 2 2 0 1 0 1 1.049
1646 233 4 323 1 1 0 2 1 0 0.341
1647 232 4 362 2 2 2 2 0 0 1.412
1648 233 4 324 2 1 2 0 1 2 1.276
1649 233 4 325 2 1 2 0 1 2 0.297
1650 232 4 363 2 2 3 1 1 3 0.879
1651 233 4 326 1 2 2 0 0 3 0.61
1652 232 4 364 3 3 0 1 1 0 0.985
1653 233 4 327 3 0 0 0 1 0 0.651
1654 232 4 365 3 3 1 2 1 1 0.691
1655 233 4 328 2 2 1 1 0 3 0.519
1656 232 4 366 0 1 0 0 0 2 0.708
1657 233 4 329 1 1 3 2 1 3 0.333
1658 232 4 367 3 0 2 0 0 0 0.633
1659 233 4 330 1 1 1 1 1 1 0.845
1660 232 4 368 2 2 2 1 1 2 0.271
1661 233 4 331 3 2 2 0 0 0 0.793
1662 232 4 369 1 1 3 1 0 2 0.224
1663 233 4 332 3 0 0 0 1 0 0.531
1664 232 4 370 3 0 3 0 0 2 0.501
1665 232 4 371 1 1 3 1 0 2 0.016
1666 233 4 333 2 2 1 2 1 1 0.654
1667 233 4 334 3 2 0 0 1 0 1.097
1668 232 4 372 3 3 1 2 0 3 3.519
1669 233 4 335 2 2 3 2 1 3 0.447
1670 232 4 373 1 1 0 2 0 2 0.721
1671 233 4 336 3 3 2 1 1 2 0.922
1672 233 4 337 0 2 0 0 1 0 1.484
1673 233 4 338 2 0 1 0 1 1 0.626
1674 233 4 339 2 2 1 1 0 0 0.838
1675 233 4 340 2 2 3 2 1 3 0.537
1676 233 4 341 3 3 0 1 1 0 1.162
1677 233 4 342 1 1 0 2 1 0 0.613
1678 233 4 343 3 1 1 0 0 3 1.387
1679 233 4 344 0 0 1 2 0 3 0.617
1680 233 4 345 2 2 3 1 0 0 0.73
1681 233 4 346 0 0 3 1 1 3 0.351
1682 232 4 374 0 1 2 0 1 2 27.621
1683 233 4 347 0 0 3 2 1 3 0.32
1684 232 4 375 1 2 3 0 1 3 0.546
1685 233 4 348 1 1 3 2 1 3 0.306
1686 232 4 376 3 2 2 0 1 2 0.936
1687 233 4 349 1 1 3 2 0 1 1.581
1688 232 4 377 1 1 3 1 0 1 0.865
1689 233 4 350 1 1 3 2 1 3 0.58
1690 232 4 378 2 1 2 0 1 2 0.879
1691 233 4 351 0 0 2 2 1 2 0.898
1692 233 4 352 1 1 0 1 0 3 0.317
1693 232 4 379 1 1 1 2 1 1 0.86
1694 233 4 353 2 0 2 0 1 2 0.856
1695 232 4 380 3 0 3 0 1 3 0.967
1696 233 4 354 0 1 2 0 1 2 0.981
1697 232 4 381 0 0 2 2 1 2 0.753
1698 233 4 355 3 1 0 0 0 3 0.597
1699 232 4 382 1 1 2 1 0 1 0.96
1700 233 4 356 0 0 3 2 1 3 0.536
1701 232 4 383 0 1 0 0 1 0 0.923
1702 233 4 357 0 0 2 2 1 2 0.739
1703 232 4 384 3 0 3 0 1 3 0.868
1704 233 4 358 3 3 3 2 1 3 0.476
1705 232 4 385 2 3 2 0 1 2 0.703
1706 233 4 359 0 0 3 2 1 3 0.384
1707 232 4 386 1 1 1 2 1 1 0.77
1708 233 4 360 3 0 3 0 1 3 0.445
1709 232 4 387 3 3 1 2 0 3 0.243
1710 233 4 361 3 3 1 1 0 2 0.68
1711 232 4 388 2 2 0 2 0 1 0.97
1712 233 4 362 2 3 0 0 0 3 0.558
1713 232 4 389 1 1 2 2 0 1 0.775
1714 233 4 363 2 2 1 2 1 1 0.708
1715 233 4 364 0 0 2 2 1 2 0.849
1716 232 4 390 0 0 2 1 0 1 3.978
1717 233 4 365 2 0 3 0 1 3 0.399
1718 232 4 391 3 0 1 0 0 2 0.2
1719 233 4 366 2 1 0 0 1 0 0.86
1720 233 4 367 0 1 3 0 1 3 0.4
1721 233 4 368 3 3 0 2 1 0 0.676
1722 233 4 369 1 1 3 2 1 3 0.386
1723 233 4 370 3 0 2 0 1 2 0.928
1724 232 4 392 3 3 0 2 0 2 11.729
1725 233 4 371 3 3 1 2 1 1 0.774
1726 232 4 393 1 1 1 2 1 1 0.668
1727 233 4 372 1 2 1 0 1 1 0.566
1728 232 4 394 2 2 0 1 0 2 0.255
1729 233 4 373 1 2 3 0 0 1 1.509
1730 232 4 395 2 2 3 1 0 1 0.436
1731 233 4 374 3 3 2 2 1 2 0.8
1732 232 4 396 2 2 3 2 0 1 2.533
1733 233 4 375 3 3 3 2 1 3 0.458
1734 233 4 376 1 2 2 0 1 2 0.981
1735 233 4 377 0 1 2 0 1 2 1.086
1736 233 4 378 1 1 3 2 1 3 0.405
1737 232 4 397 2 2 1 2 0 2 7.291
1738 233 4 379 0 0 2 1 1 2 0.675
1739 232 4 398 3 3 2 2 0 3 0.342
1740 233 4 380 0 0 3 1 1 3 0.367
1741 233 4 381 1 2 0 0 1 0 0.621
1742 233 4 382 2 2 1 2 1 1 1.445
1743 233 4 383 3 3 0 2 1 0 0.776
1744 233 4 384 1 0 1 0 0 3 0.592
1745 233 4 385 3 0 2 0 1 2 0.698
1746 233 4 386 3 3 1 2 1 1 1.448
1747 232 4 399 1 1 2 1 0 1 18.072
1748 233 4 387 0 0 2 2 1 2 1.242
1749 233 4 388 2 3 1 0 0 3 0.45
1750 233 4 389 2 2 2 1 1 2 0.633
1751 233 4 390 1 2 2 0 0 3 0.503
1752 233 4 391 1 1 1 1 1 1 0.981
1753 233 4 392 0 0 3 2 1 3 0.368
1754 233 4 393 1 1 3 2 1 3 0.289
1755 233 4 394 2 1 2 0 1 2 0.803
1756 233 4 395 2 1 1 0 1 1 0.722
1757 233 4 396 0 0 0 2 1 0 0.622
1758 233 4 397 2 2 3 1 1 3 0.492
1759 233 4 398 3 3 2 2 1 2 0.745
1760 233 4 399 2 2 1 2 0 3 0.485
1761 233 5 400 2 2 3 1 1 3 0.429
1762 233 5 401 3 3 1 2 1 1 0.651
1763 233 5 402 3 2 0 0 1 0 0.735
1764 233 5 403 2 1 3 0 1 3 0.368
1765 233 5 404 3 3 3 2 1 3 0.336
1766 233 5 405 2 2 2 1 1 2 0.575
1767 233 5 406 0 0 2 1 1 2 0.453
1768 233 5 407 1 1 1 1 1 1 0.48
1769 233 5 408 3 2 2 0 0 3 1.474
1770 233 5 409 2 0 1 0 1 1 0.684
1771 233 5 410 2 2 3 1 1 3 0.43
1772 233 5 411 2 0 1 0 1 1 0.578
1773 233 5 412 3 1 2 0 1 2 0.68
1774 233 5 413 3 1 0 0 1 0 0.955
1775 233 5 414 0 0 3 2 1 3 0.318
1776 233 5 415 3 2 2 0 1 2 0.799
1777 233 5 416 3 3 0 2 1 0 0.673
1778 233 5 417 3 3 0 1 1 0 0.724
1779 233 5 418 3 3 1 2 1 1 1.377
1780 233 5 419 2 2 0 1 1 0 0.538
1781 233 5 420 3 1 0 0 1 0 0.45
1782 232 5 400 0 2 1 0 1 1 1.105
1783 233 5 421 3 3 0 1 1 0 0.437
1784 232 5 401 1 2 1 0 0 2 0.979
1785 233 5 422 0 2 2 0 1 2 0.633
1786 233 5 423 0 0 3 2 1 3 0.44
1787 232 5 402 1 1 1 2 0 2 0.72
1788 233 5 424 2 2 1 1 1 1 0.707
1789 232 5 403 1 1 0 1 1 0 1.056
1790 233 5 425 1 2 3 0 1 3 0.437
1791 232 5 404 0 1 2 0 0 0 1.46
1792 233 5 426 0 0 2 1 1 2 0.536
1793 232 5 405 3 3 2 2 1 2 1.199
1794 233 5 427 1 1 0 2 1 0 0.515
1795 233 5 428 2 2 1 2 0 3 0.51
1796 232 5 406 2 1 0 0 0 1 1.919
1797 233 5 429 0 0 2 2 1 2 0.605
1798 232 5 407 3 0 2 0 1 2 0.968
1799 233 5 430 3 2 2 0 0 3 0.507
1800 232 5 408 1 1 3 2 1 3 1.026
1801 233 5 431 3 3 0 2 1 0 0.49
1802 233 5 432 0 0 3 1 1 3 0.34
1803 232 5 409 2 2 0 2 0 1 1.497
1804 233 5 433 0 0 0 2 1 0 0.669
1805 232 5 410 1 1 2 1 0 1 0.337
1806 233 5 434 0 0 2 1 1 2 0.464
1807 232 5 411 2 2 2 2 0 3 0.485
1808 233 5 435 3 1 3 0 1 3 0.436
1809 232 5 412 1 2 3 0 0 1 0.13
1810 232 5 413 3 3 3 1 0 2 0.251
1811 233 5 436 2 2 1 1 1 1 0.824
1812 232 5 414 2 2 3 2 0 1 0.386
1813 233 5 437 1 1 2 1 1 2 0.446
1814 232 5 415 2 0 1 0 1 1 0.386
1815 233 5 438 0 1 2 0 1 2 0.714
1816 232 5 416 0 0 0 1 0 2 0.255
1817 233 5 439 0 0 1 2 1 1 0.677
1818 232 5 417 0 0 1 1 1 1 0.419
1819 233 5 440 3 3 0 1 1 0 0.584
1820 232 5 418 1 1 2 2 0 1 0.481
1821 232 5 419 2 2 1 2 0 0 0.111
1822 233 5 441 0 2 2 0 1 2 0.855
1823 232 5 420 1 2 3 0 0 0 0.121
1824 233 5 442 3 0 2 0 0 0 0.443
1825 232 5 421 3 3 0 1 1 0 0.37
1826 233 5 443 0 0 1 2 1 1 0.684
1827 232 5 422 1 2 0 0 1 0 0.847
1828 233 5 444 0 0 1 2 1 1 0.321
1829 232 5 423 3 3 3 1 0 1 0.618
1830 233 5 445 1 1 1 1 1 1 0.433
1831 233 5 446 1 1 3 1 1 3 0.373
1832 232 5 424 2 2 3 2 0 0 0.612
1833 233 5 447 2 0 3 0 0 0 0.451
1834 232 5 425 1 2 3 0 1 3 1.58
1835 233 5 448 0 0 1 1 1 1 0.249
1836 232 5 426 0 1 0 0 0 2 0.461
1837 233 5 449 0 0 3 1 1 3 0.564
1838 232 5 427 0 0 2 1 0 0 0.395
1839 233 5 450 2 2 3 1 1 3 0.41
1840 233 5 451 1 1 3 1 1 3 0.296
1841 232 5 428 0 0 2 1 1 2 3.514
1842 233 5 452 3 3 3 2 1 3 0.426
1843 233 5 453 1 1 0 2 1 0 0.521
1844 232 5 429 2 2 0 1 1 0 0.967
1845 233 5 454 3 2 2 0 1 2 1.05
1846 232 5 430 1 2 2 0 1 2 0.799
1847 233 5 455 2 2 2 2 1 2 0.474
1848 232 5 431 3 2 2 0 1 2 0.573
1849 233 5 456 3 3 2 1 1 2 0.356
1850 232 5 432 3 2 0 0 1 0 1.09
1851 233 5 457 1 0 1 0 1 1 0.834
1852 232 5 433 3 3 3 2 1 3 0.775
1853 233 5 458 2 3 3 0 1 3 0.464
1854 232 5 434 2 0 1 0 0 0 0.421
1855 233 5 459 3 3 1 1 1 1 0.635
1856 232 5 435 3 1 2 0 1 2 0.564
1857 233 5 460 2 2 2 1 1 2 0.575
1858 232 5 436 1 1 2 2 0 1 0.429
1859 233 5 461 3 2 0 0 1 0 0.646
1860 232 5 437 3 3 2 2 1 2 0.174
1861 232 5 438 3 3 2 2 0 0 0.117
1862 233 5 462 1 0 3 0 1 3 0.458
1863 232 5 439 3 3 3 1 0 0 0.047
1864 233 5 463 3 3 0 1 1 0 0.661
1865 232 5 440 3 3 0 1 0 1 0.235
1866 233 5 464 3 3 0 2 1 0 0.444
1867 232 5 441 1 1 0 1 0 2 0.033
1868 232 5 442 1 1 1 2 0 3 0.785
1869 233 5 465 1 1 3 1 1 3 1.503
1870 233 5 466 3 1 0 0 1 0 0.518
1871 232 5 443 3 0 0 0 0 2 2.307
1872 233 5 467 3 3 2 1 1 2 0.663
1873 233 5 468 1 2 2 0 1 2 0.548
1874 233 5 469 1 1 0 1 1 0 0.524
1875 233 5 470 3 3 1 2 0 3 0.712
1876 233 5 471 1 1 1 2 0 3 0.872
1877 233 5 472 1 2 1 0 0 0 0.912
1878 233 5 473 3 3 1 1 1 1 1.278
1879 233 5 474 2 2 2 2 1 2 0.559
1880 233 5 475 1 1 1 1 1 1 0.646
1881 233 5 476 0 0 3 1 1 3 0.379
1882 233 5 477 1 1 2 1 1 2 0.577
1883 233 5 478 1 1 1 2 0 3 0.554
1884 233 5 479 3 3 1 2 1 1 0.647
1885 232 5 444 3 3 2 2 0 3 60.497
1886 232 5 445 1 1 3 1 0 1 1.416
1887 232 5 446 2 2 0 2 1 0 0.085
1888 232 5 447 0 2 2 0 0 1 0.348
1889 232 5 448 2 2 0 1 0 1 0.365
1890 232 5 449 3 3 0 2 0 2 0.001
1891 232 5 450 2 2 1 1 1 1 0.095
1892 232 5 451 1 1 2 1 0 1 0.55
1893 232 5 452 0 0 1 1 1 1 0.08
1894 232 5 453 3 3 0 2 0 3 0.506
1895 232 5 454 2 2 3 1 0 2 0.262
1896 232 5 455 1 2 0 0 0 2 0.218
1897 232 5 456 3 0 1 0 0 3 0.416
1898 232 5 457 3 3 3 2 0 0 0.496
1899 232 5 458 2 2 1 2 1 1 1.325
1900 232 5 459 2 2 3 1 1 3 0.871
1901 232 5 460 3 1 1 0 0 2 0.243
1902 232 5 461 0 1 0 0 0 1 0.409
1903 232 5 462 2 2 1 2 0 2 0.107
1904 232 5 463 0 0 3 2 0 1 0.311
1905 232 5 464 0 0 0 2 0 3 0.396
1906 232 5 465 1 0 0 0 0 1 0.155
1907 232 5 466 0 1 3 0 0 2 0.435
1908 232 5 467 1 1 1 1 1 1 0.033
1909 232 5 468 1 1 0 1 0 1 0.026
1910 232 5 469 2 0 2 0 0 0 0.071
1911 232 5 470 1 2 3 0 1 3 0.93
1912 232 5 471 0 2 3 0 0 1 0.219
1913 232 5 472 3 3 1 1 0 3 0.432
1914 232 5 473 1 1 3 1 0 1 0.366
1915 232 5 474 2 2 1 1 0 2 0.959
1916 232 5 475 2 1 1 0 1 1 2.41
1917 232 5 476 0 0 2 1 0 1 1.613
1918 232 5 477 0 0 2 2 0 1 1.204
1919 232 5 478 2 2 3 1 0 1 0.15
1920 232 5 479 2 3 2 0 0 1 0.03
1921 236 0 0 1 2 1 0 1 1 1.569
1922 236 0 1 2 3 3 0 0 2 1.748
1923 236 0 2 1 1 2 2 0 0 1.687
1924 236 0 3 3 1 0 0 1 0 1.722
1925 236 0 4 2 2 3 2 0 2 1.241
1926 236 0 5 0 0 2 2 0 0 1.15
1927 236 0 6 2 2 2 1 0 3 1.156
1928 236 0 7 1 1 3 2 0 2 1.756
1929 236 0 8 3 2 2 0 0 0 1.116
1930 236 0 9 0 0 3 2 1 3 1.221
1931 236 0 10 3 3 0 2 0 1 1.175
1932 236 0 11 3 3 0 1 0 2 1.811
1933 236 0 12 3 3 3 1 1 3 1.121
1934 236 0 13 1 1 3 1 0 0 1.941
1935 236 0 14 2 0 3 0 1 3 0.927
1936 236 0 15 2 2 0 2 0 1 1.291
1937 236 0 16 2 2 0 2 1 0 1.166
1938 236 0 17 0 1 2 0 1 2 1.136
1939 236 0 18 2 2 2 1 1 2 0.93
1940 236 0 19 3 1 3 0 1 3 0.876
1941 236 0 20 3 3 0 1 1 0 1.048
1942 236 0 21 0 0 3 1 1 3 0.51
1943 236 0 22 0 0 1 1 1 1 0.984
1944 236 0 23 0 0 3 2 1 3 0.611
1945 236 0 24 1 1 0 2 0 2 1.244
1946 236 0 25 2 2 3 1 0 1 0.83
1947 236 0 26 3 2 3 0 1 3 0.976
1948 236 0 27 0 0 2 2 1 2 0.907
1949 236 0 28 1 1 2 1 1 2 0.949
1950 236 0 29 2 2 0 1 1 0 0.958
1951 236 0 30 2 2 2 2 1 2 1.257
1952 236 0 31 2 2 0 1 1 0 0.919
1953 236 0 32 3 2 1 0 0 2 1.521
1954 236 0 33 3 0 0 0 1 0 2.665
1955 236 0 34 0 1 1 0 1 1 1.124
1956 236 0 35 0 0 3 2 1 3 0.649
1957 236 0 36 0 0 2 1 1 2 1.054
1958 236 0 37 1 1 3 2 1 3 1.174
1959 236 0 38 0 0 3 2 1 3 0.473
1960 236 0 39 2 2 0 1 1 0 1.044
1961 236 0 40 1 1 1 2 0 2 0.878
1962 236 0 41 3 3 3 2 1 3 1.2
1963 236 0 42 3 3 1 1 0 0 0.897
1964 236 0 43 1 0 1 0 0 3 1.472
1965 236 0 44 2 2 0 2 1 0 1.117
1966 236 0 45 1 2 0 0 0 2 0.752
1967 236 0 46 0 0 1 2 0 0 0.438
1968 236 0 47 2 0 0 0 0 3 0.82
1969 236 0 48 0 0 1 1 1 1 1.126
1970 236 0 49 0 0 1 1 1 1 0.312
1971 236 0 50 1 0 3 0 1 3 2.168
1972 236 0 51 3 3 0 1 0 2 2.406
1973 236 0 52 3 3 2 1 1 2 0.877
1974 236 0 53 1 1 3 2 0 1 1.243
1975 236 0 54 3 3 1 2 0 3 0.895
1976 236 0 55 3 3 0 1 1 0 1.759
1977 236 0 56 2 2 1 1 1 1 0.86
1978 236 0 57 0 0 1 2 0 0 1.34
1979 236 0 58 1 2 0 0 0 3 1.196
1980 236 0 59 2 2 3 1 1 3 0.56
1981 236 0 60 1 0 3 0 0 1 1.144
1982 236 0 61 3 0 2 0 1 2 0.83
1983 236 0 62 1 2 1 0 0 3 0.859
1984 236 0 63 3 3 3 2 0 0 0.381
1985 236 0 64 2 2 1 2 0 2 0.512
1986 236 0 65 3 2 0 0 1 0 0.989
1987 236 0 66 3 1 3 0 0 2 0.802
1988 236 0 67 2 2 3 2 0 0 0.694
1989 236 0 68 3 3 2 1 0 3 0.476
1990 236 0 69 0 0 3 1 1 3 0.809
1991 236 0 70 0 0 0 1 1 0 1.207
1992 236 0 71 2 2 2 1 1 2 1.255
1993 236 0 72 3 0 1 0 1 1 1.062
1994 236 0 73 1 1 3 1 0 2 0.908
1995 236 0 74 1 2 2 0 0 3 0.939
1996 236 0 75 1 1 0 1 0 2 3.4
1997 236 0 76 2 2 2 2 0 3 1.135
1998 236 0 77 0 0 3 1 1 3 0.405
1999 236 0 78 1 1 2 2 0 1 1.107
2000 236 0 79 0 0 1 2 1 1 0.894
2001 236 1 80 3 1 1 0 0 3 1.452
2002 236 1 81 1 2 2 0 0 1 0.744
2003 236 1 82 0 0 3 2 1 3 0.687
2004 236 1 83 3 3 1 1 0 2 0.85
2005 236 1 84 2 2 0 2 0 1 0.755
2006 236 1 85 3 1 0 0 0 2 0.855
2007 236 1 86 2 2 0 2 1 0 1.37
2008 236 1 87 1 1 3 1 1 3 0.773
2009 236 1 88 3 3 0 2 0 1 0.887
2010 236 1 89 0 0 0 2 1 0 0.92
2011 236 1 90 1 1 2 2 1 2 1.477
2012 236 1 91 3 3 1 2 0 3 0.991
2013 236 1 92 1 2 3 0 0 0 0.81
2014 236 1 93 2 2 1 2 0 0 1.182
2015 236 1 94 3 1 1 0 0 2 0.257
2016 236 1 95 0 0 3 2 1 3 0.841
2017 236 1 96 2 2 1 1 1 1 1.111
2018 236 1 97 3 1 3 0 1 3 2.235
2019 236 1 98 0 1 1 0 1 1 0.998
2020 236 1 99 0 0 2 1 1 2 0.957
2021 236 1 100 0 1 3 0 0 0 2.038
2022 236 1 101 2 2 3 1 1 3 0.729
2023 236 1 102 3 0 3 0 0 2 1.242
2024 236 1 103 3 1 1 0 1 1 0.892
2025 236 1 104 1 1 3 2 0 1 0.778
2026 236 1 105 3 2 3 0 0 2 0.652
2027 236 1 106 2 0 0 0 0 3 0.212
2028 236 1 107 3 3 0 1 0 1 0.331
2029 236 1 108 2 2 1 1 0 2 1.117
2030 236 1 109 1 2 2 0 0 1 1.427
2031 236 1 110 3 3 2 2 0 3 0.817
2032 236 1 111 1 2 0 0 0 2 0.819
2033 236 1 112 1 1 1 2 0 2 1.096
2034 236 1 113 3 3 1 2 1 1 1.138
2035 236 1 114 1 1 1 2 0 2 0.696
2036 236 1 115 2 0 2 0 1 2 0.99
2037 236 1 116 0 0 0 1 1 0 0.87
2038 236 1 117 0 0 1 2 1 1 0.948
2039 236 1 118 1 1 1 2 1 1 0.768
2040 236 1 119 2 1 1 0 1 1 0.832
2041 236 1 120 2 2 0 1 0 2 0.654
2042 236 1 121 0 0 1 1 1 1 1.19
2043 236 1 122 1 2 3 0 1 3 0.888
2044 236 1 123 1 1 2 2 1 2 0.822
2045 236 1 124 2 2 3 2 0 1 0.678
2046 236 1 125 1 1 0 2 0 2 0.431
2047 236 1 126 1 1 1 2 1 1 0.224
2048 236 1 127 2 2 2 2 0 3 0.261
2049 236 1 128 0 1 0 0 0 1 0.042
2050 236 1 129 3 3 3 2 0 1 3.815
2051 236 1 130 2 2 0 1 0 2 0.988
2052 236 1 131 3 3 1 1 1 1 0.871
2053 236 1 132 0 0 1 2 1 1 1.029
2054 236 1 133 2 2 2 1 1 2 0.811
2055 236 1 134 1 1 0 2 0 3 0.84
2056 236 1 135 3 3 2 1 1 2 0.825
2057 236 1 136 1 1 2 1 1 2 0.55
2058 236 1 137 3 3 3 1 1 3 0.702
2059 236 1 138 0 0 0 1 1 0 0.831
2060 236 1 139 2 2 1 1 0 2 0.988
2061 236 1 140 3 3 3 2 1 3 0.793
2062 236 1 141 3 3 1 2 0 3 1.002
2063 236 1 142 2 2 1 2 0 0 1.302
2064 236 1 143 1 1 3 1 1 3 0.599
2065 236 1 144 1 2 0 0 1 0 0.876
2066 236 1 145 2 3 2 0 1 2 0.904
2067 236 1 146 1 1 3 2 1 3 0.548
2068 236 1 147 0 0 3 2 1 3 0.43
2069 236 1 148 2 2 2 1 1 2 1.035
2070 236 1 149 2 3 2 0 1 2 0.77
2071 236 1 150 3 3 2 2 1 2 0.628
2072 236 1 151 0 0 2 2 1 2 0.618
2073 236 1 152 1 1 0 1 1 0 0.831
2074 236 1 153 1 1 1 1 1 1 0.78
2075 236 1 154 0 0 0 2 0 3 0.878
2076 236 1 155 0 0 1 2 1 1 0.8
2077 236 1 156 3 1 3 0 1 3 1.087
2078 236 1 157 2 0 0 0 1 0 0.964
2079 236 1 158 3 3 0 1 1 0 0.861
2080 236 1 159 3 3 3 2 0 2 0.444
2081 236 2 160 2 2 2 2 1 2 0.959
2082 236 2 161 3 3 1 2 1 1 0.73
2083 236 2 162 0 0 0 1 1 0 0.763
2084 236 2 163 1 1 1 1 0 2 1.002
2085 236 2 164 1 1 3 1 1 3 0.485
2086 236 2 165 1 1 2 2 1 2 0.928
2087 236 2 166 1 1 3 1 1 3 0.458
2088 236 2 167 1 1 1 2 1 1 1.239
2089 236 2 168 3 3 2 2 1 2 0.755
2090 236 2 169 3 1 0 0 0 2 1.092
2091 236 2 170 2 0 1 0 0 0 1.229
2092 236 2 171 2 1 1 0 0 3 0.672
2093 236 2 172 2 2 2 2 0 3 1.001
2094 236 2 173 3 3 0 1 1 0 0.852
2095 236 2 174 3 1 0 0 0 2 0.784
2096 236 2 175 2 2 1 2 0 3 1.205
2097 236 2 176 0 0 3 1 1 3 0.569
2098 236 2 177 3 3 3 2 1 3 0.946
2099 236 2 178 3 1 0 0 1 0 0.893
2100 236 2 179 1 0 1 0 0 2 0.591
2101 236 2 180 0 2 2 0 0 0 0.474
2102 236 2 181 2 2 1 1 0 2 0.168
2103 236 2 182 3 2 1 0 1 1 2.192
2104 236 2 183 3 1 3 0 1 3 0.588
2105 236 2 184 1 1 3 2 1 3 0.405
2106 236 2 185 2 0 3 0 0 0 0.85
2107 236 2 186 2 0 1 0 0 0 0.562
2108 236 2 187 3 3 2 1 1 2 1.069
2109 236 2 188 3 3 2 1 1 2 0.705
2110 236 2 189 2 1 1 0 1 1 0.787
2111 236 2 190 0 1 1 0 1 1 0.481
2112 236 2 191 3 3 0 2 0 3 0.637
2113 236 2 192 0 0 1 1 1 1 0.709
2114 236 2 193 0 0 2 2 1 2 0.649
2115 236 2 194 2 2 3 2 0 1 1.07
2116 236 2 195 0 0 2 1 1 2 0.695
2117 236 2 196 1 2 2 0 0 0 1.977
2118 236 2 197 2 1 2 0 1 2 0.656
2119 236 2 198 0 0 3 1 1 3 0.58
2120 236 2 199 0 0 1 2 1 1 0.668
2121 236 2 200 2 3 3 0 0 2 1.023
2122 236 2 201 3 3 0 1 1 0 1.097
2123 236 2 202 3 3 2 1 1 2 0.701
2124 236 2 203 1 1 2 1 1 2 0.559
2125 236 2 204 2 2 3 2 1 3 0.841
2126 236 2 205 3 3 3 2 1 3 0.472
2127 236 2 206 2 2 3 2 1 3 0.517
2128 236 2 207 1 1 2 2 1 2 0.656
2129 236 2 208 3 3 2 1 1 2 0.835
2130 236 2 209 1 1 2 2 0 1 0.579
2131 236 2 210 1 0 0 0 1 0 0.556
2132 236 2 211 2 1 3 0 1 3 0.467
2133 236 2 212 3 3 1 2 0 2 0.577
2134 236 2 213 1 2 3 0 0 0 0.22
2135 236 2 214 2 2 3 2 0 2 2.821
2136 236 2 215 2 2 2 2 0 3 1.025
2137 236 2 216 2 2 2 1 1 2 0.699
2138 236 2 217 0 0 1 2 0 0 0.592
2139 236 2 218 1 1 1 2 0 2 0.715
2140 236 2 219 1 1 1 1 1 1 0.88
2141 236 2 220 2 2 2 1 0 3 0.636
2142 236 2 221 0 0 0 2 1 0 0.726
2143 236 2 222 0 1 3 0 1 3 0.503
2144 236 2 223 0 0 2 1 1 2 0.689
2145 236 2 224 0 0 0 1 1 0 0.995
2146 236 2 225 2 1 1 0 0 3 0.651
2147 236 2 226 2 2 1 1 1 1 0.386
2148 236 2 227 1 2 2 0 0 3 0.176
2149 236 2 228 1 1 3 1 0 1 0.264
2150 236 2 229 3 3 0 2 0 2 0.145
2151 236 2 230 2 2 3 1 0 2 2.714
2152 236 2 231 0 2 0 0 1 0 0.455
2153 236 2 232 3 3 0 2 1 0 0.82
2154 236 2 233 2 2 3 2 1 3 0.868
2155 236 2 234 3 3 2 1 1 2 0.64
2156 236 2 235 3 3 3 1 1 3 0.403
2157 236 2 236 0 1 3 0 1 3 0.416
2158 236 2 237 1 1 2 1 1 2 0.844
2159 236 2 238 1 1 1 2 1 1 0.797
2160 236 2 239 2 0 2 0 1 2 0.684
2161 236 3 240 1 0 2 0 0 1 0.831
2162 236 3 241 3 3 0 1 1 0 0.816
2163 236 3 242 2 3 1 0 0 0 0.429
2164 236 3 243 0 0 3 2 1 3 0.398
2165 236 3 244 0 1 2 0 0 3 0.347
2166 236 3 245 2 1 1 0 1 1 0.301
2167 236 3 246 3 3 2 1 0 3 0.301
2168 236 3 247 3 1 1 0 0 3 0.433
2169 236 3 248 3 3 3 2 0 2 0.802
2170 236 3 249 1 2 2 0 0 1 0.787
2171 236 3 250 2 2 1 1 0 2 1.061
2172 236 3 251 3 3 1 1 1 1 0.733
2173 236 3 252 2 1 1 0 0 2 1.054
2174 236 3 253 3 3 0 1 1 0 0.791
2175 236 3 254 2 2 3 2 0 2 0.712
2176 236 3 255 2 2 0 2 1 0 0.767
2177 236 3 256 3 3 0 2 1 0 0.801
2178 236 3 257 2 2 3 1 1 3 0.56
2179 236 3 258 1 1 2 2 1 2 0.617
2180 236 3 259 3 3 1 1 1 1 1.118
2181 236 3 260 2 3 1 0 1 1 0.6
2182 236 3 261 3 3 2 1 1 2 0.99
2183 236 3 262 1 1 0 1 1 0 0.677
2184 236 3 263 3 2 3 0 1 3 0.823
2185 236 3 264 2 2 2 1 1 2 0.724
2186 236 3 265 1 2 1 0 1 1 0.629
2187 236 3 266 2 2 1 2 1 1 0.428
2188 236 3 267 0 0 0 1 1 0 0.632
2189 236 3 268 2 2 2 1 1 2 0.733
2190 236 3 269 2 0 3 0 1 3 1.439
2191 236 3 270 0 0 3 2 1 3 0.394
2192 236 3 271 0 2 0 0 1 0 0.743
2193 236 3 272 3 0 1 0 0 0 0.823
2194 236 3 273 0 0 2 1 1 2 1.032
2195 236 3 274 1 2 1 0 0 2 0.574
2196 236 3 275 1 1 3 1 0 2 0.503
2197 236 3 276 0 0 1 2 1 1 0.822
2198 236 3 277 0 2 3 0 0 2 0.643
2199 236 3 278 2 3 2 0 1 2 0.49
2200 236 3 279 3 3 3 1 1 3 0.995
2201 236 3 280 0 1 1 0 1 1 0.635
2202 236 3 281 1 2 0 0 1 0 0.911
2203 236 3 282 3 2 1 0 0 0 1.643
2204 236 3 283 2 2 2 1 1 2 0.704
2205 236 3 284 3 0 3 0 0 0 0.739
2206 236 3 285 2 2 1 2 1 1 0.889
2207 236 3 286 3 3 3 2 1 3 0.637
2208 236 3 287 3 2 0 0 1 0 1.041
2209 236 3 288 3 3 0 2 0 3 1.081
2210 236 3 289 1 1 2 1 0 1 0.769
2211 236 3 290 2 2 1 2 0 2 0.647
2212 236 3 291 3 3 0 2 1 0 0.866
2213 236 3 292 2 2 2 1 0 3 0.414
2214 236 3 293 3 3 3 2 0 1 0.288
2215 236 3 294 3 3 0 2 0 3 0.294
2216 236 3 295 3 3 1 2 1 1 0.733
2217 236 3 296 2 2 1 1 0 3 0.334
2218 236 3 297 1 2 1 0 1 1 0.512
2219 236 3 298 3 3 1 2 1 1 0.604
2220 236 3 299 0 0 3 2 1 3 0.564
2221 236 3 300 2 3 2 0 1 2 0.571
2222 236 3 301 1 2 3 0 1 3 0.611
2223 236 3 302 0 0 0 2 1 0 0.795
2224 236 3 303 2 2 2 2 1 2 0.717
2225 236 3 304 1 2 3 0 1 3 1.231
2226 236 3 305 1 1 3 2 1 3 0.545
2227 236 3 306 1 1 2 2 1 2 0.94
2228 236 3 307 0 1 3 0 1 3 0.534
2229 236 3 308 2 2 3 2 0 0 1.553
2230 236 3 309 1 2 0 0 1 0 0.713
2231 236 3 310 1 1 3 1 1 3 0.443
2232 236 3 311 2 1 2 0 1 2 0.502
2233 236 3 312 3 3 0 2 1 0 0.881
2234 236 3 313 2 3 0 0 1 0 0.604
2235 236 3 314 0 1 0 0 1 0 1.089
2236 236 3 315 3 3 0 1 0 2 2.517
2237 236 3 316 0 0 0 1 1 0 0.601
2238 236 3 317 3 3 1 1 0 3 0.814
2239 236 3 318 2 2 3 2 1 3 0.514
2240 236 3 319 2 1 2 0 0 3 0.459
2241 236 4 320 1 0 2 0 2 -1 0.648
2242 236 4 321 0 0 1 1 1 1 1.031
2243 236 4 322 0 0 2 2 1 2 0.912
2244 236 4 323 0 0 3 2 1 3 0.349
2245 236 4 324 1 1 0 1 1 0 0.668
2246 236 4 325 0 1 3 0 1 3 1.072
2247 236 4 326 1 1 0 1 1 0 0.901
2248 236 4 327 0 0 2 2 0 0 0.738
2249 236 4 328 2 2 0 2 0 3 0.584
2250 236 4 329 1 2 2 0 1 2 0.754
2251 236 4 330 1 1 0 1 1 0 0.545
2252 236 4 331 0 0 3 1 1 3 0.425
2253 236 4 332 0 1 2 0 0 3 0.452
2254 236 4 333 1 2 0 0 1 0 0.69
2255 236 4 334 1 1 1 2 0 2 0.791
2256 236 4 335 0 0 1 1 0 0 0.586
2257 236 4 336 1 0 3 0 1 3 1.251
2258 236 4 337 2 2 0 1 0 2 1.986
2259 236 4 338 1 1 3 1 1 3 0.41
2260 236 4 339 1 1 3 2 0 1 1.097
2261 236 4 340 0 0 3 1 1 3 0.432
2262 236 4 341 2 1 3 0 1 3 0.492
2263 236 4 342 3 2 2 0 1 2 0.837
2264 236 4 343 0 0 3 2 1 3 0.388
2265 236 4 344 2 2 0 1 0 3 0.546
2266 236 4 345 2 1 3 0 1 3 0.494
2267 236 4 346 2 2 3 2 1 3 0.715
2268 236 4 347 3 3 2 1 1 2 0.829
2269 236 4 348 2 2 1 1 1 1 0.827
2270 236 4 349 1 1 1 2 1 1 0.57
2271 236 4 350 3 3 0 1 1 0 1.216
2272 236 4 351 0 2 2 0 0 1 0.575
2273 236 4 352 3 3 3 1 1 3 0.505
2274 236 4 353 3 3 0 1 1 0 1.154
2275 236 4 354 1 1 0 1 1 0 0.723
2276 236 4 355 3 2 3 0 1 3 0.596
2277 236 4 356 3 3 3 2 1 3 0.861
2278 236 4 357 0 0 0 2 1 0 1.069
2279 236 4 358 3 1 0 0 0 3 0.594
2280 236 4 359 0 0 1 1 0 0 0.539
2281 236 4 360 3 3 3 2 1 3 0.504
2282 236 4 361 1 1 3 2 1 3 0.417
2283 236 4 362 0 0 3 2 1 3 0.464
2284 236 4 363 3 3 0 1 1 0 0.7
2285 236 4 364 3 0 2 0 1 2 0.942
2286 236 4 365 3 3 1 1 1 1 1.735
2287 236 4 366 2 0 0 0 0 3 0.644
2288 236 4 367 1 1 2 1 1 2 1.34
2289 236 4 368 3 3 2 2 0 3 0.729
2290 236 4 369 0 0 2 2 0 1 0.737
2291 236 4 370 3 3 2 1 1 2 0.902
2292 236 4 371 3 3 2 1 1 2 0.418
2293 236 4 372 3 0 2 0 1 2 0.399
2294 236 4 373 2 0 2 0 1 2 0.524
2295 236 4 374 3 3 2 1 1 2 0.74
2296 236 4 375 0 0 2 1 1 2 0.436
2297 236 4 376 2 2 2 1 1 2 1.231
2298 236 4 377 0 0 0 1 1 0 1.326
2299 236 4 378 3 2 3 0 0 2 1.002
2300 236 4 379 1 1 0 1 0 3 0.677
2301 236 4 380 1 2 0 0 0 2 0.603
2302 236 4 381 0 0 1 2 1 1 0.999
2303 236 4 382 0 1 3 0 0 2 1.405
2304 236 4 383 3 3 1 1 0 0 0.841
2305 236 4 384 0 0 3 1 1 3 0.409
2306 236 4 385 0 0 3 2 1 3 0.36
2307 236 4 386 0 1 3 0 0 2 0.742
2308 236 4 387 1 1 0 1 1 0 1.13
2309 236 4 388 3 3 1 1 1 1 0.844
2310 236 4 389 3 3 3 1 1 3 1.225
2311 236 4 390 3 3 3 2 1 3 0.347
2312 236 4 391 2 2 3 2 0 0 0.876
2313 236 4 392 1 1 1 2 1 1 0.958
2314 236 4 393 1 1 2 2 0 1 1.304
2315 236 4 394 2 0 3 0 0 0 0.728
2316 236 4 395 2 2 3 2 1 3 0.895
2317 236 4 396 3 3 2 2 1 2 0.701
2318 236 4 397 3 3 1 2 0 2 0.624
2319 236 4 398 3 3 2 2 1 2 0.331
2320 236 4 399 2 2 3 1 0 0 0.618
2321 236 5 400 0 2 3 0 1 3 0.471
2322 236 5 401 3 3 0 2 1 0 0.58
2323 236 5 402 3 3 1 2 1 1 0.78
2324 236 5 403 3 3 3 2 1 3 0.479
2325 236 5 404 2 1 3 0 1 3 0.57
2326 236 5 405 0 0 3 1 1 3 0.338
2327 236 5 406 1 1 3 1 1 3 0.369
2328 236 5 407 0 0 0 1 1 0 0.56
2329 236 5 408 0 0 3 1 1 3 0.391
2330 236 5 409 1 1 0 1 1 0 0.692
2331 236 5 410 2 2 1 2 0 0 1.088
2332 236 5 411 2 2 3 2 1 3 0.409
2333 236 5 412 0 0 3 1 1 3 0.374
2334 236 5 413 3 3 3 1 1 3 0.355
2335 236 5 414 3 3 3 1 1 3 0.386
2336 236 5 415 2 2 3 2 1 3 0.37
2337 236 5 416 3 3 1 2 1 1 1.155
2338 236 5 417 1 0 1 0 0 3 0.646
2339 236 5 418 2 2 1 1 0 3 0.481
2340 236 5 419 3 3 0 1 1 0 0.559
2341 236 5 420 0 0 2 1 1 2 0.727
2342 236 5 421 0 1 2 0 1 2 0.489
2343 236 5 422 0 0 3 1 1 3 0.45
2344 236 5 423 2 0 2 0 1 2 0.654
2345 236 5 424 2 2 0 2 0 3 0.468
2346 236 5 425 3 3 3 2 1 3 0.308
2347 236 5 426 3 0 2 0 1 2 0.836
2348 236 5 427 0 0 2 2 1 2 1.124
2349 236 5 428 3 2 0 0 0 3 0.445
2350 236 5 429 1 1 3 1 1 3 0.54
2351 236 5 430 3 3 1 1 1 1 0.723
2352 236 5 431 0 0 1 1 1 1 0.549
2353 236 5 432 2 2 3 2 0 0 1.056
2354 236 5 433 3 3 1 1 0 0 0.938
2355 236 5 434 2 2 1 1 0 3 0.486
2356 236 5 435 1 1 3 1 1 3 0.436
2357 236 5 436 3 3 0 2 1 0 0.706
2358 236 5 437 0 0 2 2 1 2 0.807
2359 236 5 438 0 0 3 1 1 3 0.534
2360 236 5 439 2 3 3 0 1 3 0.798
2361 236 5 440 3 3 3 1 1 3 0.396
2362 236 5 441 0 0 2 2 1 2 0.699
2363 236 5 442 2 0 0 0 0 1 2.94
2364 236 5 443 3 3 1 2 1 1 0.581
2365 236 5 444 0 0 2 2 1 2 0.526
2366 236 5 445 3 2 0 0 1 0 1.416
2367 236 5 446 3 2 2 0 1 2 0.752
2368 236 5 447 1 2 0 0 1 0 1.441
2369 236 5 448 0 1 3 0 1 3 0.824
2370 236 5 449 0 0 3 1 1 3 0.357
2371 236 5 450 1 2 3 0 1 3 0.452
2372 236 5 451 0 0 1 1 1 1 0.687
2373 236 5 452 0 0 2 2 0 3 0.564
2374 236 5 453 3 3 2 2 1 2 0.849
2375 236 5 454 1 1 0 1 1 0 1.037
2376 236 5 455 2 2 2 1 1 2 0.659
2377 236 5 456 2 2 3 2 1 3 0.52
2378 236 5 457 1 1 0 2 0 3 0.579
2379 236 5 458 2 0 2 0 1 2 0.525
2380 236 5 459 0 1 3 0 1 3 0.66
2381 236 5 460 3 3 0 1 1 0 0.823
2382 236 5 461 1 1 1 1 0 2 1.221
2383 236 5 462 2 2 2 2 1 2 0.713
2384 236 5 463 2 2 1 1 1 1 0.795
2385 236 5 464 0 2 1 0 1 1 0.89
2386 236 5 465 0 2 2 0 1 2 0.741
2387 236 5 466 0 0 1 2 1 1 0.695
2388 236 5 467 1 2 1 0 0 2 0.441
2389 236 5 468 1 1 0 2 0 2 0.538
2390 236 5 469 3 3 1 1 1 1 0.646
2391 236 5 470 0 0 0 1 1 0 0.73
2392 236 5 471 1 1 2 2 1 2 0.862
2393 236 5 472 0 0 1 1 0 0 0.716
2394 236 5 473 0 0 3 1 1 3 0.418
2395 236 5 474 0 1 2 0 0 3 0.382
2396 236 5 475 2 2 1 1 0 0 0.559
2397 236 5 476 1 1 1 1 0 2 0.345
2398 236 5 477 0 0 0 2 1 0 0.83
2399 236 5 478 2 3 3 0 0 2 0.587
2400 236 5 479 1 1 1 2 1 1 1.111
