datID sessionID block trial WordInt ColorInt TrueInt Cong Correct Response rt
1 228 0 0 0 1 3 0 0 1 1.356
2 228 0 1 1 2 2 0 1 2 0.922
3 228 0 2 1 1 3 2 1 3 0.727
4 228 0 3 3 2 2 0 0 0 1.157
5 228 0 4 0 0 1 2 1 1 0.748
6 228 0 5 3 3 2 1 1 2 0.749
7 228 0 6 1 0 1 0 1 1 1.518
8 228 0 7 3 3 2 2 1 2 0.661
9 228 0 8 2 0 3 0 1 3 0.489
10 228 0 9 2 2 1 2 1 1 1.205
11 228 0 10 3 3 2 2 1 2 0.504
12 228 0 11 0 1 0 0 1 0 0.657
13 228 0 12 2 1 3 0 1 3 0.484
14 228 0 13 0 0 2 1 1 2 0.622
15 228 0 14 2 3 2 0 1 2 0.419
16 228 0 15 2 2 0 1 1 0 0.463
17 228 0 16 0 0 3 1 1 3 0.506
18 228 0 17 0 0 0 2 1 0 0.965
19 228 0 18 0 0 2 2 1 2 0.704
20 228 0 19 0 0 0 2 1 0 0.501
21 228 0 20 3 3 2 2 1 2 0.672
22 228 0 21 2 1 2 0 0 1 1.796
23 228 0 22 1 1 0 1 1 0 0.45
24 228 0 23 3 3 2 1 1 2 0.445
25 228 0 24 3 0 1 0 0 0 0.456
26 228 0 25 3 3 3 1 1 3 0.502
27 228 0 26 2 2 0 1 0 1 0.991
28 228 0 27 0 0 1 2 1 1 0.909
29 228 0 28 3 3 2 2 1 2 0.602
30 228 0 29 2 2 3 2 1 3 0.626
31 228 0 30 0 0 3 1 1 3 0.407
32 228 0 31 1 1 0 1 1 0 0.787
33 228 0 32 2 2 1 2 1 1 1.348
34 228 0 33 2 2 0 1 1 0 0.719
35 228 0 34 0 0 0 1 1 0 0.416
36 228 0 35 0 0 0 1 1 0 0.363
37 228 0 36 0 0 2 2 1 2 0.556
38 228 0 37 1 1 3 1 1 3 0.563
39 228 0 38 3 3 0 2 1 0 0.525
40 228 0 39 2 3 1 0 1 1 0.886
41 228 0 40 0 0 1 2 1 1 0.643
42 228 0 41 0 0 3 2 1 3 0.584
43 228 0 42 2 2 3 1 0 0 1.976
44 228 0 43 0 0 2 2 0 0 1.73
45 228 0 44 0 0 3 2 1 3 0.373
46 228 0 45 0 0 1 1 1 1 0.803
47 228 0 46 1 1 0 1 1 0 0.881
48 228 0 47 0 0 3 2 1 3 0.43
49 228 0 48 1 1 0 1 1 0 0.809
50 228 0 49 3 2 3 0 1 3 0.872
51 228 0 50 3 2 3 0 1 3 0.42
52 228 0 51 3 3 1 2 1 1 0.995
53 228 0 52 2 2 0 2 1 0 1.02
54 228 0 53 0 0 2 2 1 2 0.655
55 228 0 54 3 3 0 1 1 0 0.53
56 228 0 55 2 2 2 2 1 2 0.541
57 228 0 56 2 2 2 2 1 2 0.568
58 228 0 57 1 1 0 2 1 0 0.674
59 228 0 58 0 1 0 0 1 0 0.533
60 228 0 59 3 1 2 0 1 2 0.46
61 228 0 60 2 2 1 2 0 0 0.953
62 228 0 61 0 0 3 2 1 3 0.424
63 228 0 62 0 1 0 0 1 0 0.563
64 228 0 63 3 3 0 1 1 0 0.427
65 228 0 64 0 2 3 0 1 3 0.391
66 228 0 65 3 0 3 0 1 3 0.42
67 228 0 66 2 2 3 2 1 3 0.37
68 228 0 67 2 2 2 1 1 2 0.399
69 228 0 68 3 3 3 2 1 3 0.414
70 228 0 69 0 0 1 2 0 0 0.38
71 228 0 70 1 0 0 0 1 0 1.66
72 228 0 71 3 0 3 0 1 3 0.428
73 228 0 72 2 1 2 0 1 2 0.456
74 228 0 73 1 2 3 0 1 3 1.219
75 228 0 74 2 0 3 0 1 3 0.449
76 228 0 75 2 2 1 2 1 1 0.958
77 228 0 76 2 2 1 1 1 1 0.47
78 228 0 77 1 1 0 2 0 1 1.033
79 228 0 78 1 1 1 1 1 1 0.85
80 228 0 79 2 2 3 2 0 2 1.153
81 228 1 80 3 3 3 1 1 3 1.063
82 228 1 81 0 0 2 1 1 2 0.348
83 228 1 82 2 1 1 0 0 0 0.763
84 228 1 83 2 2 1 1 0 2 0.559
85 228 1 84 2 2 0 1 1 0 0.522
86 228 1 85 3 3 1 1 1 1 0.61
87 228 1 86 0 1 1 0 1 1 0.504
88 228 1 87 1 2 3 0 0 1 0.753
89 228 1 88 3 0 2 0 1 2 0.805
90 228 1 89 2 0 1 0 1 1 0.755
91 228 1 90 3 3 0 1 1 0 0.771
92 228 1 91 1 1 3 2 1 3 1.46
93 228 1 92 1 1 3 2 1 3 0.43
94 228 1 93 3 3 0 2 1 0 0.701
95 228 1 94 3 3 0 1 1 0 0.367
96 228 1 95 2 2 1 1 1 1 0.715
97 228 1 96 0 0 0 2 1 0 0.527
98 228 1 97 2 2 0 1 1 0 0.518
99 228 1 98 1 1 0 2 1 0 0.353
100 228 1 99 3 3 0 2 1 0 0.418
101 228 1 100 3 0 0 0 1 0 1.662
102 228 1 101 2 2 3 2 1 3 1.392
103 228 1 102 3 3 2 1 1 2 0.665
104 228 1 103 1 1 1 1 1 1 0.845
105 228 1 104 2 2 3 1 1 3 0.505
106 228 1 105 0 0 2 2 0 0 0.756
107 228 1 106 3 2 0 0 0 3 0.599
108 228 1 107 3 3 2 1 1 2 0.673
109 228 1 108 0 1 0 0 1 0 0.708
110 228 1 109 1 1 2 1 1 2 0.758
111 228 1 110 1 2 0 0 1 0 0.758
112 228 1 111 1 1 3 2 1 3 0.744
113 228 1 112 0 0 0 1 1 0 0.489
114 228 1 113 3 3 3 2 1 3 0.532
115 228 1 114 1 1 2 1 1 2 0.732
116 228 1 115 3 3 1 2 1 1 0.879
117 228 1 116 1 0 0 0 1 0 2.107
118 229 0 0 3 3 0 1 1 0 1.324
119 228 1 117 2 0 3 0 1 3 0.506
120 229 0 1 0 1 2 0 1 2 1.138
121 228 1 118 2 2 2 2 1 2 1.174
122 229 0 2 0 0 0 2 1 0 1.433
123 228 1 119 1 1 1 2 1 1 0.937
124 229 0 3 0 0 3 2 1 3 0.557
125 228 1 120 3 3 2 1 1 2 0.562
126 229 0 4 3 1 3 0 1 3 0.517
127 228 1 121 2 1 2 0 1 2 0.376
128 229 0 5 1 1 1 2 1 1 1.121
129 228 1 122 3 2 3 0 1 3 0.405
130 229 0 6 3 3 1 1 1 1 1.141
131 228 1 123 0 0 0 1 1 0 0.594
132 229 0 7 1 1 3 1 1 3 0.409
133 228 1 124 0 0 2 1 1 2 0.583
134 229 0 8 1 1 3 2 1 3 0.297
135 228 1 125 2 3 0 0 1 0 0.813
136 229 0 9 0 0 3 1 1 3 0.332
137 228 1 126 1 0 2 0 1 2 0.524
138 229 0 10 3 3 2 2 0 0 1.32
139 228 1 127 3 3 3 2 1 3 0.583
140 229 0 11 3 3 1 1 1 1 0.753
141 228 1 128 2 2 2 1 0 1 0.909
142 229 0 12 1 1 0 2 1 0 1.302
143 228 1 129 2 2 3 2 1 3 0.398
144 228 1 130 0 1 0 0 0 3 0.857
145 229 0 13 1 1 1 1 1 1 1.187
146 228 1 131 0 0 0 2 1 0 0.507
147 229 0 14 2 2 1 2 0 3 1.199
148 228 1 132 2 3 1 0 1 1 0.899
149 229 0 15 1 1 2 1 1 2 0.823
150 228 1 133 3 3 0 1 1 0 0.558
151 229 0 16 3 2 3 0 1 3 0.444
152 228 1 134 2 2 1 1 1 1 0.757
153 229 0 17 2 0 2 0 0 0 2.008
154 228 1 135 1 1 0 1 1 0 0.629
155 228 1 136 0 0 0 2 1 0 0.316
156 229 0 18 3 3 0 2 1 0 1.908
157 228 1 137 3 3 2 2 1 2 0.607
158 229 0 19 0 1 1 0 0 2 1.581
159 228 1 138 0 0 0 1 1 0 0.404
160 228 1 139 1 2 0 0 1 0 0.464
161 229 0 20 1 0 1 0 0 3 0.844
162 228 1 140 2 2 3 1 1 3 0.394
163 229 0 21 2 2 1 1 0 0 0.957
164 228 1 141 2 2 2 2 1 2 0.376
165 229 0 22 3 3 0 2 1 0 1.102
166 228 1 142 2 2 0 2 1 0 0.519
167 229 0 23 0 0 3 1 1 3 0.379
168 228 1 143 0 0 2 1 1 2 1.201
169 229 0 24 0 0 3 2 1 3 0.645
170 228 1 144 2 2 3 2 1 3 0.371
171 229 0 25 0 0 2 1 1 2 0.94
172 228 1 145 0 0 3 2 1 3 0.372
173 229 0 26 0 0 1 2 1 1 1.049
174 228 1 146 3 3 1 2 1 1 1.188
175 228 1 147 2 0 2 0 1 2 0.388
176 229 0 27 0 1 1 0 0 3 1.975
177 228 1 148 1 2 1 0 1 1 0.961
178 229 0 28 0 0 0 1 1 0 0.864
179 228 1 149 0 2 1 0 1 1 0.312
180 229 0 29 1 1 1 2 1 1 1.128
181 228 1 150 0 0 3 2 1 3 0.442
182 229 0 30 2 2 2 1 0 3 0.788
183 228 1 151 3 1 0 0 1 0 0.838
184 229 0 31 2 2 1 1 1 1 0.872
185 228 1 152 2 2 1 1 1 1 0.803
186 229 0 32 2 2 1 2 1 1 0.561
187 228 1 153 0 0 1 2 1 1 0.612
188 229 0 33 2 0 2 0 1 2 0.826
189 228 1 154 1 1 2 2 1 2 1.212
190 229 0 34 3 3 1 1 1 1 0.882
191 228 1 155 3 2 3 0 0 1 0.635
192 229 0 35 3 1 2 0 1 2 0.83
193 228 1 156 0 1 0 0 0 2 0.514
194 229 0 36 0 1 3 0 0 2 0.557
195 228 1 157 2 2 0 1 0 1 0.702
196 229 0 37 0 0 1 2 0 3 1.811
197 228 1 158 2 1 2 0 1 2 0.755
198 228 1 159 3 3 3 2 1 3 0.406
199 229 0 38 0 2 1 0 1 1 1.172
200 229 0 39 2 2 3 2 1 3 0.425
201 229 0 40 0 2 2 0 1 2 0.839
202 229 0 41 1 0 1 0 0 2 0.61
203 229 0 42 0 1 1 0 1 1 0.507
204 229 0 43 3 3 2 1 1 2 0.725
205 229 0 44 1 1 1 1 1 1 1.376
206 229 0 45 0 2 2 0 0 3 0.811
207 229 0 46 3 3 2 1 1 2 0.703
208 229 0 47 0 0 0 2 1 0 1.005
209 229 0 48 1 1 1 1 1 1 0.846
210 229 0 49 2 2 0 2 1 0 1.112
211 229 0 50 3 0 3 0 1 3 0.452
212 229 0 51 3 1 0 0 1 0 1.4
213 229 0 52 3 3 1 1 1 1 0.779
214 229 0 53 1 1 0 2 0 3 0.822
215 229 0 54 0 0 2 1 1 2 0.752
216 229 0 55 1 1 0 1 1 0 0.778
217 229 0 56 3 3 2 2 1 2 0.758
218 229 0 57 1 2 0 0 0 3 0.952
219 229 0 58 3 0 3 0 1 3 0.375
220 229 0 59 1 0 1 0 0 0 1.717
221 229 0 60 3 0 2 0 1 2 0.4
222 229 0 61 0 0 1 1 1 1 0.782
223 229 0 62 1 1 0 1 0 2 0.494
224 229 0 63 0 0 3 2 1 3 0.983
225 228 2 160 3 3 1 2 1 1 0.852
226 229 0 64 0 0 3 1 1 3 0.273
227 228 2 161 2 2 3 1 1 3 0.369
228 229 0 65 3 1 2 0 1 2 0.708
229 228 2 162 1 2 2 0 1 2 0.415
230 229 0 66 1 1 1 1 1 1 0.92
231 228 2 163 2 2 3 1 1 3 0.299
232 229 0 67 0 0 1 1 1 1 0.652
233 228 2 164 3 1 0 0 1 0 0.988
234 229 0 68 2 1 3 0 1 3 0.372
235 228 2 165 2 0 2 0 1 2 0.339
236 229 0 69 0 0 3 1 1 3 0.338
237 228 2 166 3 3 3 1 1 3 0.306
238 229 0 70 0 0 3 1 1 3 0.283
239 228 2 167 0 1 3 0 1 3 0.529
240 229 0 71 2 1 0 0 1 0 1.109
241 228 2 168 1 1 2 1 1 2 0.345
242 229 0 72 0 1 0 0 1 0 0.378
243 228 2 169 1 1 3 2 1 3 0.307
244 229 0 73 1 1 0 1 1 0 0.512
245 228 2 170 3 3 2 1 1 2 0.323
246 229 0 74 2 2 3 2 1 3 0.386
247 228 2 171 3 3 0 2 1 0 0.514
248 228 2 172 0 0 0 1 1 0 0.411
249 229 0 75 3 0 0 0 1 0 0.858
250 228 2 173 1 1 3 1 1 3 0.328
251 229 0 76 3 3 3 1 1 3 0.368
252 228 2 174 3 3 0 1 1 0 0.407
253 229 0 77 2 2 0 1 0 1 1.977
254 228 2 175 2 2 0 1 1 0 0.34
255 229 0 78 2 2 3 1 1 3 0.386
256 228 2 176 1 1 2 1 1 2 0.466
257 229 0 79 0 0 2 1 1 2 0.72
258 228 2 177 3 2 0 0 1 0 0.428
259 228 2 178 0 0 1 2 0 0 0.297
260 228 2 179 1 0 2 0 0 1 0.797
261 229 1 80 1 1 2 1 1 2 0.844
262 229 1 81 3 3 3 1 1 3 0.37
263 228 2 180 1 1 2 1 1 2 0.494
264 229 1 82 3 3 3 2 1 3 0.317
265 228 2 181 2 2 2 2 0 3 0.891
266 229 1 83 2 2 3 2 1 3 0.513
267 228 2 182 1 2 2 0 1 2 1.13
268 229 1 84 3 1 2 0 1 2 0.572
269 228 2 183 1 1 3 2 1 3 0.351
270 229 1 85 0 1 1 0 1 1 0.796
271 228 2 184 1 2 3 0 1 3 0.365
272 229 1 86 0 0 1 1 1 1 0.421
273 228 2 185 1 1 3 2 1 3 0.333
274 229 1 87 0 0 3 2 1 3 0.348
275 228 2 186 1 1 3 1 1 3 0.22
276 229 1 88 0 0 2 1 1 2 0.86
277 228 2 187 1 1 2 2 1 2 0.865
278 229 1 89 0 2 3 0 1 3 0.529
279 228 2 188 3 3 3 1 1 3 0.348
280 228 2 189 3 3 3 1 1 3 0.282
281 229 1 90 2 2 0 1 1 0 0.819
282 229 1 91 1 1 2 2 1 2 0.428
283 228 2 190 1 1 1 1 1 1 0.731
284 229 1 92 0 0 2 2 1 2 0.403
285 228 2 191 0 0 1 1 1 1 0.491
286 229 1 93 3 2 0 0 0 3 0.93
287 228 2 192 3 3 3 2 1 3 0.391
288 229 1 94 1 1 0 2 1 0 0.804
289 228 2 193 0 0 1 2 1 1 0.679
290 228 2 194 3 0 2 0 1 2 0.426
291 229 1 95 1 1 1 1 1 1 0.772
292 228 2 195 3 3 0 2 1 0 0.585
293 229 1 96 0 1 2 0 1 2 0.678
294 228 2 196 2 2 0 1 1 0 0.43
295 229 1 97 2 1 0 0 1 0 0.754
296 228 2 197 2 1 2 0 1 2 0.873
297 229 1 98 2 2 3 2 1 3 0.669
298 228 2 198 2 2 2 1 1 2 0.453
299 229 1 99 2 1 2 0 1 2 0.41
300 228 2 199 1 1 3 1 1 3 0.351
301 229 1 100 0 1 0 0 1 0 0.839
302 229 1 101 0 1 3 0 1 3 0.31
303 228 2 200 0 0 0 1 1 0 1.006
304 228 2 201 0 1 1 0 1 1 0.707
305 229 1 102 0 0 0 2 1 0 0.853
306 228 2 202 3 3 2 2 1 2 0.471
307 229 1 103 3 2 3 0 1 3 0.484
308 229 1 104 0 0 0 1 1 0 0.83
309 228 2 203 1 2 1 0 0 2 1.086
310 228 2 204 3 3 1 2 1 1 0.616
311 229 1 105 1 0 0 0 1 0 1.189
312 228 2 205 1 1 0 2 1 0 0.448
313 229 1 106 2 2 0 2 0 3 1.162
314 228 2 206 2 2 2 2 0 1 0.938
315 229 1 107 0 0 2 1 1 2 0.744
316 228 2 207 2 2 1 1 1 1 0.503
317 229 1 108 0 0 1 2 1 1 0.748
318 228 2 208 1 1 2 1 1 2 0.431
319 229 1 109 1 1 1 2 1 1 0.472
320 228 2 209 3 2 3 0 1 3 0.346
321 229 1 110 1 2 0 0 1 0 0.723
322 228 2 210 1 1 3 2 1 3 0.316
323 229 1 111 0 0 2 1 1 2 0.414
324 228 2 211 2 2 2 2 1 2 0.414
325 229 1 112 0 0 1 2 1 1 0.751
326 228 2 212 2 2 0 1 1 0 0.411
327 229 1 113 0 0 0 1 1 0 1.161
328 228 2 213 1 2 2 0 1 2 1
329 229 1 114 3 1 3 0 1 3 0.445
330 228 2 214 0 1 1 0 1 1 0.672
331 229 1 115 1 2 3 0 1 3 0.369
332 228 2 215 2 3 1 0 1 1 0.402
333 229 1 116 2 2 0 1 1 0 0.872
334 228 2 216 2 0 0 0 1 0 0.383
335 228 2 217 3 3 1 1 1 1 0.539
336 229 1 117 1 0 2 0 1 2 1.117
337 228 2 218 2 1 3 0 1 3 0.387
338 229 1 118 2 2 2 2 1 2 0.596
339 228 2 219 2 2 3 2 1 3 0.354
340 229 1 119 0 0 0 2 1 0 1.045
341 228 2 220 0 0 1 2 1 1 0.515
342 229 1 120 0 0 3 1 1 3 0.357
343 228 2 221 1 1 1 1 1 1 0.476
344 229 1 121 3 3 1 2 0 0 1.088
345 228 2 222 1 0 3 0 0 0 0.759
346 229 1 122 3 1 2 0 1 2 1.778
347 228 2 223 0 2 0 0 1 0 0.635
348 229 1 123 2 2 1 2 0 2 0.473
349 228 2 224 3 3 3 2 1 3 0.433
350 229 1 124 1 2 3 0 1 3 0.328
351 228 2 225 1 1 3 2 1 3 0.383
352 229 1 125 3 3 3 1 1 3 0.433
353 228 2 226 2 0 2 0 1 2 0.556
354 229 1 126 0 2 0 0 1 0 0.815
355 228 2 227 2 2 2 2 1 2 0.406
356 228 2 228 0 1 3 0 1 3 0.355
357 229 1 127 1 0 0 0 1 0 1.431
358 228 2 229 0 0 3 2 1 3 0.388
359 229 1 128 3 0 2 0 1 2 0.753
360 228 2 230 3 1 2 0 1 2 0.369
361 229 1 129 2 2 2 2 0 3 0.814
362 228 2 231 1 2 2 0 0 3 0.32
363 229 1 130 3 3 2 2 0 0 0.772
364 228 2 232 1 0 0 0 1 0 0.483
365 229 1 131 2 3 0 0 1 0 0.873
366 228 2 233 0 0 3 1 1 3 0.382
367 229 1 132 1 2 3 0 1 3 0.583
368 228 2 234 2 1 3 0 1 3 0.828
369 229 1 133 3 3 1 1 1 1 0.839
370 228 2 235 0 0 2 1 1 2 0.36
371 228 2 236 0 0 2 2 1 2 0.311
372 229 1 134 0 0 1 1 1 1 1.661
373 228 2 237 3 0 1 0 1 1 0.647
374 229 1 135 2 1 0 0 1 0 0.717
375 228 2 238 1 1 1 2 0 3 0.828
376 229 1 136 1 1 2 1 1 2 0.747
377 228 2 239 0 0 1 2 1 1 1.343
378 229 1 137 3 3 3 1 1 3 0.422
379 229 1 138 0 0 2 2 1 2 0.47
380 229 1 139 2 2 3 1 0 0 1.074
381 229 1 140 3 3 3 2 1 3 0.439
382 229 1 141 2 2 1 2 1 1 0.806
383 229 1 142 3 3 0 2 1 0 0.76
384 229 1 143 3 3 0 2 1 0 0.476
385 229 1 144 2 2 2 1 1 2 0.879
386 229 1 145 3 1 2 0 1 2 0.556
387 229 1 146 2 2 0 1 1 0 0.957
388 229 1 147 2 0 0 0 0 2 0.464
389 228 3 240 1 0 0 0 1 0 0.564
390 229 1 148 1 1 1 2 1 1 0.854
391 228 3 241 2 0 3 0 1 3 0.379
392 229 1 149 3 3 2 2 0 3 0.599
393 228 3 242 0 0 2 1 1 2 0.36
394 229 1 150 0 0 1 2 1 1 0.868
395 228 3 243 3 2 1 0 0 3 0.709
396 229 1 151 2 1 0 0 1 0 0.705
397 228 3 244 1 2 1 0 1 1 0.634
398 229 1 152 0 1 0 0 1 0 0.341
399 228 3 245 1 1 0 2 0 1 0.64
400 229 1 153 1 2 2 0 1 2 0.613
401 228 3 246 0 0 3 2 1 3 0.393
402 229 1 154 2 1 0 0 1 0 0.804
403 228 3 247 3 3 2 2 1 2 0.44
404 229 1 155 2 2 3 2 0 0 1.038
405 228 3 248 3 3 1 2 1 1 0.87
406 229 1 156 0 0 3 1 1 3 0.761
407 228 3 249 2 2 2 1 1 2 0.418
408 229 1 157 2 2 3 2 0 1 0.91
409 228 3 250 0 0 1 2 1 1 0.833
410 229 1 158 2 2 3 2 1 3 0.432
411 228 3 251 1 2 0 0 0 1 0.654
412 229 1 159 3 1 3 0 1 3 0.374
413 228 3 252 0 0 0 1 1 0 0.453
414 228 3 253 0 0 0 1 1 0 0.592
415 228 3 254 0 2 1 0 1 1 0.599
416 228 3 255 0 0 3 1 1 3 0.38
417 229 2 160 3 3 2 2 1 2 0.879
418 228 3 256 2 2 1 2 0 3 0.557
419 229 2 161 3 3 3 2 1 3 0.359
420 228 3 257 3 3 2 1 1 2 0.408
421 228 3 258 2 2 2 1 1 2 0.373
422 229 2 162 3 3 1 2 1 1 0.818
423 228 3 259 0 0 2 2 1 2 0.389
424 229 2 163 1 0 2 0 0 1 1.506
425 228 3 260 0 2 2 0 1 2 0.306
426 229 2 164 2 2 2 1 0 3 0.612
427 228 3 261 1 0 1 0 1 1 0.562
428 229 2 165 1 1 2 2 1 2 0.729
429 228 3 262 3 3 2 1 1 2 0.329
430 229 2 166 1 1 0 1 1 0 0.787
431 228 3 263 0 0 0 2 1 0 0.459
432 229 2 167 3 3 0 1 1 0 0.852
433 228 3 264 3 3 2 1 1 2 0.406
434 229 2 168 3 3 3 1 1 3 0.355
435 228 3 265 0 0 3 2 1 3 0.389
436 228 3 266 0 0 1 1 1 1 0.467
437 229 2 169 1 1 0 2 1 0 0.869
438 228 3 267 1 1 0 1 1 0 0.477
439 229 2 170 3 3 1 1 1 1 1.651
440 228 3 268 0 0 0 2 1 0 0.345
441 229 2 171 0 1 0 0 1 0 0.611
442 228 3 269 2 0 0 0 1 0 0.311
443 229 2 172 3 3 0 2 1 0 0.461
444 228 3 270 1 1 1 2 1 1 0.554
445 229 2 173 2 2 0 2 0 3 0.652
446 228 3 271 1 1 1 1 1 1 0.386
447 229 2 174 0 0 0 2 1 0 0.736
448 228 3 272 3 3 2 2 1 2 0.577
449 229 2 175 3 3 0 1 1 0 0.371
450 228 3 273 2 2 3 1 1 3 0.36
451 229 2 176 0 0 3 1 1 3 0.347
452 228 3 274 1 2 3 0 1 3 0.31
453 229 2 177 2 1 1 0 1 1 0.826
454 228 3 275 0 0 3 1 1 3 0.373
455 229 2 178 0 0 2 2 1 2 0.724
456 228 3 276 1 1 0 2 1 0 0.421
457 228 3 277 2 2 3 1 1 3 0.305
458 229 2 179 2 2 1 1 1 1 1.446
459 228 3 278 2 2 3 2 1 3 0.291
460 229 2 180 1 1 2 1 1 2 0.815
461 228 3 279 2 2 0 2 1 0 0.438
462 229 2 181 3 1 3 0 1 3 0.327
463 228 3 280 1 1 0 1 1 0 0.385
464 229 2 182 3 2 1 0 1 1 0.753
465 228 3 281 2 0 1 0 1 1 0.511
466 229 2 183 1 1 0 2 1 0 0.925
467 228 3 282 2 2 3 1 1 3 0.457
468 229 2 184 0 0 2 1 1 2 0.457
469 228 3 283 3 3 1 1 1 1 0.563
470 228 3 284 0 1 3 0 1 3 0.378
471 229 2 185 1 1 2 2 1 2 0.781
472 228 3 285 2 0 3 0 1 3 0.359
473 229 2 186 1 2 2 0 1 2 0.493
474 229 2 187 3 3 2 2 1 2 0.402
475 228 3 286 0 2 2 0 1 2 0.532
476 229 2 188 2 1 3 0 1 3 0.344
477 228 3 287 0 0 3 2 1 3 0.382
478 228 3 288 0 0 3 1 1 3 0.363
479 229 2 189 2 2 0 1 0 3 0.68
480 228 3 289 0 0 0 2 1 0 0.428
481 229 2 190 0 0 0 1 1 0 0.744
482 228 3 290 3 0 0 0 1 0 0.36
483 229 2 191 0 1 1 0 1 1 0.563
484 228 3 291 1 1 3 1 1 3 0.326
485 229 2 192 0 0 3 2 1 3 0.367
486 228 3 292 2 2 3 1 1 3 0.39
487 229 2 193 1 1 0 2 1 0 1.12
488 228 3 293 3 3 0 1 1 0 0.37
489 229 2 194 0 0 0 2 1 0 0.631
490 228 3 294 1 1 0 2 1 0 0.418
491 229 2 195 0 0 3 2 0 0 0.655
492 228 3 295 3 3 0 1 1 0 0.382
493 229 2 196 3 3 2 1 1 2 0.905
494 228 3 296 1 1 0 1 1 0 0.236
495 229 2 197 3 3 2 2 1 2 0.328
496 228 3 297 1 1 2 2 1 2 0.497
497 228 3 298 2 2 2 1 1 2 0.299
498 229 2 198 1 1 0 1 1 0 0.898
499 228 3 299 0 1 3 0 1 3 0.348
500 229 2 199 2 2 1 2 0 2 0.777
501 228 3 300 2 2 1 1 1 1 0.954
502 229 2 200 3 3 1 2 1 1 0.799
503 228 3 301 3 3 3 1 1 3 0.322
504 229 2 201 0 1 1 0 1 1 0.543
505 229 2 202 1 1 0 2 0 2 0.419
506 228 3 302 3 3 1 2 1 1 0.66
507 228 3 303 3 3 3 2 1 3 0.395
508 229 2 203 2 2 2 1 1 2 0.765
509 228 3 304 1 1 1 1 1 1 0.52
510 229 2 204 1 1 1 1 1 1 0.776
511 228 3 305 1 1 2 1 1 2 0.449
512 229 2 205 0 0 1 1 0 2 0.313
513 229 2 206 2 2 2 2 0 3 0.585
514 228 3 306 1 0 1 0 1 1 0.668
515 228 3 307 2 2 1 1 1 1 0.495
516 229 2 207 1 1 0 1 1 0 0.773
517 228 3 308 0 1 3 0 1 3 0.344
518 229 2 208 3 3 3 2 1 3 0.528
519 228 3 309 1 1 1 1 1 1 0.582
520 229 2 209 2 3 3 0 1 3 0.593
521 228 3 310 1 2 1 0 1 1 0.491
522 229 2 210 3 1 2 0 1 2 0.464
523 228 3 311 3 3 0 1 1 0 0.452
524 229 2 211 3 3 1 1 1 1 0.66
525 228 3 312 3 3 2 1 1 2 0.527
526 229 2 212 3 1 3 0 1 3 0.472
527 229 2 213 1 1 3 1 1 3 0.292
528 228 3 313 0 0 0 1 1 0 0.359
529 228 3 314 0 0 0 1 1 0 0.358
530 229 2 214 3 3 2 1 1 2 0.559
531 228 3 315 0 0 3 1 1 3 0.405
532 229 2 215 0 0 2 1 1 2 0.832
533 228 3 316 0 0 3 2 1 3 0.467
534 229 2 216 1 1 2 1 1 2 0.398
535 228 3 317 2 2 2 1 1 2 0.749
536 229 2 217 1 1 1 1 1 1 0.692
537 228 3 318 0 0 2 2 1 2 0.543
538 229 2 218 1 1 0 1 1 0 1.2
539 228 3 319 0 0 1 2 1 1 0.616
540 229 2 219 2 2 3 2 1 3 0.395
541 229 2 220 2 2 0 2 1 0 0.789
542 229 2 221 3 3 2 2 1 2 0.696
543 229 2 222 0 0 2 1 1 2 0.381
544 229 2 223 2 2 2 2 1 2 0.631
545 229 2 224 1 1 1 1 1 1 0.957
546 229 2 225 3 3 2 2 1 2 0.545
547 229 2 226 0 0 3 1 1 3 0.449
548 229 2 227 0 0 1 2 1 1 0.92
549 229 2 228 3 3 3 2 1 3 0.405
550 229 2 229 2 2 3 2 0 1 2.198
551 229 2 230 1 1 1 2 0 2 0.618
552 229 2 231 2 2 2 1 0 0 0.748
553 229 2 232 2 3 1 0 1 1 1.883
554 229 2 233 1 1 1 1 1 1 0.404
555 229 2 234 1 1 3 2 1 3 0.349
556 229 2 235 0 0 1 2 1 1 2.927
557 229 2 236 1 2 0 0 1 0 0.931
558 229 2 237 0 0 2 2 1 2 0.512
559 229 2 238 0 2 3 0 1 3 0.61
560 229 2 239 2 2 2 1 1 2 0.434
561 228 4 320 0 1 3 0 1 3 0.469
562 229 3 240 2 1 3 0 1 3 0.487
563 228 4 321 2 2 1 2 1 1 0.625
564 229 3 241 3 1 0 0 0 2 0.491
565 228 4 322 0 0 0 2 1 0 0.36
566 229 3 242 2 2 1 2 0 0 1.732
567 228 4 323 0 0 0 1 1 0 0.26
568 229 3 243 1 1 3 2 1 3 0.328
569 228 4 324 0 0 0 2 1 0 0.232
570 229 3 244 0 1 1 0 1 1 0.8
571 228 4 325 0 0 0 2 1 0 0.204
572 228 4 326 2 1 3 0 1 3 0.304
573 229 3 245 2 3 2 0 0 3 1.607
574 228 4 327 0 0 0 1 1 0 0.191
575 229 3 246 0 0 1 1 0 2 0.398
576 228 4 328 1 1 0 1 1 0 0.339
577 229 3 247 2 2 3 1 1 3 0.408
578 228 4 329 0 0 3 2 1 3 0.373
579 229 3 248 2 2 2 1 1 2 0.695
580 228 4 330 1 1 3 1 1 3 0.371
581 229 3 249 1 1 0 1 1 0 0.883
582 228 4 331 3 3 3 1 1 3 0.321
583 228 4 332 1 1 1 2 0 2 0.627
584 229 3 250 0 0 2 1 0 0 1.073
585 228 4 333 3 0 1 0 1 1 0.475
586 229 3 251 1 1 1 1 1 1 0.667
587 228 4 334 2 2 3 1 1 3 0.324
588 229 3 252 2 2 0 2 1 0 0.818
589 229 3 253 2 3 3 0 1 3 0.409
590 228 4 335 1 1 3 2 1 3 1.717
591 228 4 336 2 2 2 2 1 2 0.357
592 229 3 254 1 1 2 2 1 2 1.807
593 228 4 337 1 1 1 2 1 1 0.597
594 228 4 338 2 2 1 2 1 1 0.445
595 229 3 255 2 1 1 0 1 1 2.051
596 228 4 339 0 0 1 2 1 1 0.571
597 229 3 256 3 3 0 1 1 0 0.75
598 228 4 340 3 3 0 2 1 0 0.58
599 229 3 257 1 1 3 1 1 3 0.361
600 228 4 341 0 0 0 2 1 0 0.445
601 229 3 258 3 3 0 1 1 0 1.073
602 228 4 342 0 2 0 0 1 0 0.392
603 229 3 259 2 2 1 2 1 1 0.922
604 228 4 343 2 1 1 0 1 1 0.596
605 229 3 260 1 1 2 2 1 2 0.679
606 228 4 344 3 3 3 1 1 3 0.345
607 229 3 261 3 3 0 2 1 0 0.942
608 228 4 345 3 3 3 1 1 3 0.711
609 229 3 262 0 0 2 1 1 2 0.617
610 228 4 346 3 3 1 1 1 1 0.457
611 229 3 263 3 3 3 1 1 3 0.353
612 228 4 347 0 0 2 2 1 2 0.55
613 229 3 264 3 3 0 2 1 0 0.915
614 228 4 348 0 0 2 1 1 2 0.382
615 229 3 265 3 3 3 1 1 3 0.375
616 228 4 349 0 0 3 1 1 3 0.396
617 229 3 266 1 1 0 2 1 0 0.89
618 228 4 350 0 0 0 1 1 0 0.408
619 229 3 267 2 0 3 0 1 3 0.326
620 228 4 351 0 0 0 2 1 0 0.311
621 229 3 268 0 0 2 1 1 2 0.551
622 228 4 352 2 3 2 0 1 2 0.534
623 228 4 353 1 1 2 1 1 2 0.285
624 229 3 269 0 2 2 0 1 2 1.167
625 228 4 354 1 1 0 1 1 0 0.381
626 229 3 270 0 0 1 1 1 1 0.761
627 228 4 355 2 2 3 1 1 3 0.362
628 229 3 271 3 3 0 2 1 0 0.925
629 228 4 356 0 0 0 2 1 0 0.251
630 229 3 272 3 0 0 0 1 0 0.65
631 228 4 357 3 3 3 2 1 3 0.351
632 229 3 273 1 1 0 2 1 0 0.466
633 228 4 358 2 0 0 0 1 0 0.446
634 229 3 274 3 3 0 2 1 0 0.496
635 228 4 359 1 1 2 2 1 2 0.443
636 229 3 275 1 2 3 0 1 3 1.027
637 228 4 360 1 1 1 1 0 0 0.405
638 228 4 361 0 1 2 0 1 2 0.453
639 229 3 276 3 3 2 1 1 2 0.819
640 228 4 362 2 2 3 2 1 3 0.402
641 229 3 277 3 3 2 1 1 2 0.57
642 228 4 363 2 2 0 1 1 0 0.43
643 229 3 278 2 3 3 0 1 3 0.707
644 228 4 364 2 1 0 0 1 0 0.475
645 229 3 279 3 3 3 1 1 3 0.295
646 228 4 365 1 1 3 1 1 3 0.421
647 229 3 280 0 0 3 2 1 3 0.404
648 228 4 366 2 2 3 2 1 3 0.34
649 229 3 281 2 0 1 0 1 1 1.698
650 228 4 367 3 3 2 2 1 2 0.357
651 229 3 282 1 1 2 2 1 2 0.684
652 228 4 368 0 0 2 1 1 2 0.419
653 229 3 283 2 3 1 0 0 2 0.44
654 228 4 369 3 0 3 0 1 3 0.366
655 229 3 284 0 0 0 1 1 0 0.745
656 228 4 370 1 1 1 1 1 1 0.604
657 229 3 285 1 1 3 1 1 3 0.363
658 228 4 371 1 2 2 0 1 2 0.385
659 229 3 286 2 2 2 2 1 2 0.67
660 228 4 372 0 2 1 0 1 1 1.231
661 229 3 287 2 2 0 2 1 0 0.701
662 228 4 373 1 1 0 1 1 0 0.478
663 229 3 288 3 1 1 0 1 1 0.769
664 228 4 374 1 1 0 2 0 1 0.651
665 229 3 289 2 2 2 1 0 3 0.706
666 228 4 375 1 1 3 1 1 3 0.371
667 229 3 290 1 1 1 1 1 1 0.673
668 228 4 376 0 0 1 1 1 1 0.8
669 229 3 291 1 1 3 2 1 3 0.352
670 228 4 377 1 1 2 1 1 2 0.35
671 229 3 292 2 2 1 2 1 1 0.698
672 228 4 378 0 0 3 2 1 3 0.382
673 229 3 293 2 2 3 2 1 3 0.6
674 228 4 379 1 1 3 2 1 3 0.413
675 229 3 294 3 3 0 1 1 0 0.615
676 228 4 380 3 3 2 1 1 2 0.36
677 229 3 295 2 1 2 0 1 2 0.941
678 228 4 381 2 3 1 0 1 1 1.11
679 229 3 296 1 1 3 2 1 3 0.331
680 228 4 382 3 3 1 1 1 1 0.666
681 229 3 297 0 0 0 1 1 0 0.733
682 228 4 383 3 3 3 1 1 3 0.318
683 229 3 298 0 0 1 2 1 1 0.754
684 228 4 384 2 2 2 2 0 1 0.767
685 229 3 299 3 2 1 0 0 3 0.972
686 228 4 385 3 3 0 1 1 0 0.578
687 229 3 300 2 0 2 0 1 2 0.466
688 228 4 386 2 1 3 0 1 3 0.665
689 229 3 301 2 2 2 1 1 2 0.455
690 228 4 387 1 1 1 2 1 1 0.479
691 229 3 302 1 1 0 1 1 0 0.604
692 228 4 388 3 0 3 0 1 3 0.377
693 229 3 303 3 0 0 0 1 0 0.499
694 228 4 389 0 0 1 1 1 1 0.407
695 229 3 304 2 2 0 1 1 0 0.478
696 228 4 390 0 1 2 0 1 2 0.404
697 228 4 391 2 0 0 0 1 0 0.48
698 229 3 305 2 0 1 0 1 1 0.882
699 229 3 306 0 0 1 1 1 1 0.384
700 228 4 392 3 3 1 1 1 1 0.666
701 229 3 307 1 1 2 2 1 2 0.593
702 228 4 393 1 1 2 2 1 2 0.432
703 229 3 308 2 2 2 2 1 2 0.332
704 228 4 394 3 1 1 0 1 1 0.508
705 229 3 309 0 1 3 0 1 3 0.397
706 228 4 395 1 1 3 2 1 3 0.344
707 229 3 310 1 1 3 2 1 3 0.263
708 228 4 396 0 0 2 1 1 2 0.887
709 229 3 311 3 3 3 1 1 3 0.257
710 228 4 397 2 2 1 1 1 1 0.45
711 229 3 312 2 2 1 2 1 1 1.567
712 228 4 398 0 2 3 0 1 3 0.362
713 229 3 313 1 2 2 0 0 0 0.706
714 228 4 399 0 0 3 1 1 3 0.359
715 229 3 314 2 2 2 1 1 2 0.369
716 229 3 315 0 0 0 1 1 0 0.672
717 229 3 316 3 0 3 0 1 3 0.277
718 229 3 317 3 3 3 2 1 3 0.523
719 229 3 318 2 2 3 2 1 3 0.351
720 229 3 319 2 2 3 2 1 3 0.33
721 229 4 320 2 2 3 1 1 3 0.252
722 229 4 321 1 1 0 2 0 2 0.302
723 229 4 322 2 1 1 0 1 1 0.387
724 229 4 323 3 3 0 2 1 0 0.651
725 229 4 324 0 0 2 1 1 2 0.52
726 229 4 325 0 0 1 2 1 1 0.725
727 229 4 326 3 3 2 1 1 2 0.44
728 229 4 327 3 3 3 2 1 3 0.32
729 229 4 328 2 2 3 2 1 3 0.42
730 229 4 329 0 0 2 1 1 2 0.594
731 229 4 330 2 2 3 2 1 3 0.724
732 229 4 331 2 2 2 1 1 2 0.766
733 228 5 400 2 2 0 2 1 0 0.397
734 229 4 332 0 0 3 1 1 3 0.311
735 228 5 401 1 1 2 1 1 2 0.394
736 229 4 333 1 1 3 1 1 3 0.304
737 228 5 402 3 3 1 2 0 0 0.408
738 229 4 334 1 1 0 2 1 0 0.564
739 228 5 403 2 2 0 1 1 0 0.376
740 229 4 335 1 0 3 0 1 3 0.548
741 228 5 404 1 1 3 1 1 3 0.422
742 229 4 336 2 3 3 0 1 3 0.461
743 228 5 405 2 1 1 0 1 1 0.466
744 229 4 337 0 0 2 2 1 2 0.372
745 228 5 406 2 2 1 1 1 1 0.445
746 228 5 407 0 0 0 1 1 0 0.601
747 229 4 338 3 0 3 0 0 0 1.932
748 228 5 408 3 3 1 2 1 1 0.64
749 229 4 339 2 2 2 1 1 2 0.959
750 228 5 409 0 0 3 2 1 3 0.421
751 229 4 340 3 3 3 2 1 3 0.355
752 228 5 410 0 2 1 0 1 1 0.641
753 229 4 341 3 3 0 1 1 0 0.858
754 228 5 411 0 0 2 2 1 2 0.551
755 228 5 412 0 1 0 0 1 0 0.559
756 229 4 342 1 0 0 0 0 2 2.544
757 229 4 343 3 3 2 1 0 3 0.301
758 228 5 413 3 2 1 0 1 1 0.518
759 229 4 344 3 3 2 1 0 0 0.819
760 228 5 414 1 2 0 0 0 3 0.911
761 228 5 415 1 2 3 0 1 3 0.429
762 229 4 345 1 0 1 0 1 1 1.398
763 228 5 416 2 1 1 0 1 1 0.792
764 229 4 346 2 1 3 0 1 3 0.857
765 228 5 417 0 1 1 0 1 1 0.55
766 229 4 347 3 0 2 0 1 2 0.414
767 228 5 418 0 0 1 2 1 1 0.767
768 229 4 348 2 2 3 2 0 1 0.982
769 228 5 419 3 3 3 2 1 3 0.513
770 229 4 349 0 1 2 0 1 2 0.738
771 228 5 420 2 2 2 2 1 2 0.509
772 229 4 350 0 0 1 2 1 1 0.8
773 228 5 421 0 1 3 0 1 3 0.422
774 229 4 351 1 1 2 1 1 2 0.664
775 228 5 422 2 1 0 0 1 0 0.722
776 229 4 352 1 1 3 1 1 3 0.302
777 228 5 423 2 1 0 0 1 0 0.835
778 229 4 353 2 1 1 0 1 1 0.783
779 228 5 424 0 2 3 0 1 3 0.464
780 229 4 354 0 1 1 0 1 1 0.303
781 228 5 425 2 2 2 1 1 2 0.458
782 229 4 355 3 3 2 2 1 2 0.467
783 228 5 426 3 3 3 2 1 3 0.327
784 229 4 356 2 2 1 2 0 3 0.657
785 228 5 427 3 1 2 0 1 2 0.901
786 229 4 357 3 0 2 0 1 2 0.691
787 228 5 428 1 1 1 1 1 1 0.497
788 229 4 358 3 3 1 2 1 1 0.762
789 228 5 429 1 1 1 1 1 1 0.33
790 229 4 359 1 1 0 1 1 0 0.684
791 228 5 430 0 0 0 2 1 0 0.523
792 229 4 360 3 3 2 2 1 2 0.45
793 229 4 361 1 1 2 1 1 2 0.366
794 228 5 431 0 0 0 2 1 0 0.837
795 229 4 362 1 1 2 2 1 2 0.318
796 228 5 432 2 1 0 0 1 0 0.658
797 229 4 363 3 3 2 1 1 2 0.36
798 228 5 433 2 2 2 2 1 2 0.552
799 229 4 364 3 3 1 1 1 1 0.392
800 228 5 434 2 2 2 2 1 2 0.45
801 229 4 365 3 3 2 1 1 2 0.327
802 228 5 435 2 0 3 0 1 3 0.462
803 229 4 366 0 1 1 0 1 1 1.993
804 228 5 436 0 0 2 2 0 0 2.202
805 229 4 367 2 3 3 0 1 3 0.367
806 228 5 437 1 1 0 1 1 0 0.393
807 229 4 368 1 1 3 2 1 3 0.4
808 228 5 438 0 1 0 0 1 0 0.262
809 229 4 369 0 0 3 1 1 3 0.366
810 228 5 439 2 2 0 2 1 0 0.473
811 229 4 370 2 2 3 2 1 3 0.312
812 228 5 440 3 3 1 2 1 1 0.484
813 229 4 371 3 3 1 2 1 1 0.483
814 228 5 441 0 0 3 1 1 3 0.382
815 229 4 372 1 1 2 1 1 2 0.318
816 229 4 373 3 3 2 1 1 2 0.328
817 228 5 442 2 2 0 2 1 0 1.469
818 229 4 374 2 2 2 2 0 3 0.707
819 228 5 443 1 2 2 0 1 2 0.548
820 229 4 375 2 2 1 1 1 1 0.811
821 228 5 444 1 2 1 0 1 1 0.412
822 229 4 376 2 1 0 0 1 0 0.523
823 228 5 445 0 2 2 0 1 2 0.425
824 229 4 377 0 0 0 2 1 0 0.384
825 228 5 446 0 0 1 1 1 1 0.421
826 228 5 447 1 1 2 2 1 2 0.419
827 229 4 378 3 2 3 0 0 0 0.815
828 228 5 448 1 2 2 0 1 2 0.35
829 229 4 379 3 3 1 1 1 1 0.649
830 228 5 449 2 2 0 1 1 0 0.62
831 229 4 380 3 3 2 2 1 2 0.457
832 228 5 450 0 0 1 1 1 1 0.833
833 229 4 381 2 1 0 0 1 0 1.533
834 228 5 451 3 2 1 0 1 1 0.446
835 229 4 382 0 1 1 0 1 1 1.034
836 228 5 452 2 1 3 0 1 3 0.521
837 229 4 383 2 3 2 0 1 2 0.362
838 228 5 453 1 2 1 0 1 1 0.69
839 229 4 384 1 1 2 2 1 2 0.413
840 228 5 454 2 2 1 2 1 1 0.519
841 229 4 385 0 0 1 1 1 1 0.851
842 228 5 455 2 2 3 2 1 3 0.402
843 229 4 386 2 2 0 2 1 0 0.788
844 228 5 456 2 1 1 0 1 1 0.558
845 228 5 457 1 1 1 2 0 3 0.695
846 229 4 387 0 2 1 0 1 1 1.748
847 229 4 388 3 0 2 0 1 2 0.346
848 228 5 458 0 2 1 0 0 2 0.636
849 228 5 459 3 3 3 2 1 3 0.39
850 229 4 389 2 1 0 0 1 0 1.002
851 228 5 460 1 1 3 1 1 3 0.324
852 229 4 390 2 3 0 0 1 0 0.523
853 228 5 461 0 0 3 2 1 3 0.325
854 229 4 391 0 0 3 1 1 3 0.365
855 228 5 462 3 3 2 2 1 2 0.439
856 229 4 392 2 0 0 0 1 0 0.628
857 228 5 463 2 1 3 0 1 3 0.434
858 229 4 393 0 0 1 2 1 1 0.804
859 228 5 464 2 2 1 1 1 1 0.493
860 229 4 394 3 3 3 1 1 3 0.372
861 228 5 465 2 0 3 0 1 3 0.326
862 229 4 395 3 0 0 0 1 0 0.964
863 228 5 466 1 1 1 2 1 1 0.601
864 229 4 396 2 2 2 2 1 2 0.433
865 228 5 467 2 3 2 0 1 2 1.023
866 229 4 397 1 1 1 1 1 1 0.591
867 228 5 468 3 3 2 1 1 2 0.326
868 229 4 398 1 2 3 0 1 3 0.543
869 228 5 469 0 0 0 1 1 0 1.094
870 229 4 399 1 2 2 0 1 2 0.385
871 228 5 470 1 1 1 1 1 1 1.081
872 228 5 471 0 0 0 1 1 0 0.861
873 228 5 472 1 2 1 0 1 1 0.537
874 228 5 473 1 1 2 2 1 2 1.843
875 228 5 474 3 2 3 0 1 3 0.444
876 228 5 475 0 0 3 2 1 3 0.378
877 228 5 476 0 0 0 2 1 0 0.778
878 228 5 477 2 0 2 0 1 2 0.65
879 228 5 478 3 3 0 1 1 0 0.83
880 228 5 479 1 1 1 2 1 1 0.781
881 229 5 400 1 1 2 2 1 2 2.05
882 229 5 401 1 1 3 2 1 3 0.319
883 229 5 402 3 0 0 0 0 2 0.408
884 229 5 403 2 3 3 0 1 3 0.298
885 229 5 404 0 0 2 2 1 2 1.095
886 229 5 405 2 2 1 1 0 3 0.501
887 229 5 406 3 2 3 0 0 1 0.874
888 229 5 407 0 0 2 2 1 2 0.782
889 229 5 408 0 0 0 1 1 0 0.566
890 229 5 409 1 1 3 2 0 1 0.776
891 229 5 410 1 1 2 1 1 2 0.548
892 229 5 411 0 2 2 0 0 0 0.685
893 229 5 412 2 2 2 1 1 2 0.669
894 229 5 413 1 1 2 1 1 2 0.435
895 229 5 414 1 0 3 0 1 3 0.304
896 229 5 415 2 2 1 1 1 1 0.746
897 229 5 416 3 3 1 2 0 3 1.021
898 229 5 417 1 1 1 1 1 1 0.713
899 229 5 418 1 1 3 2 1 3 0.278
900 229 5 419 2 2 2 1 1 2 0.52
901 229 5 420 3 2 3 0 1 3 0.314
902 229 5 421 0 0 3 2 1 3 0.357
903 229 5 422 0 0 2 1 1 2 0.589
904 229 5 423 1 1 3 2 1 3 0.359
905 229 5 424 3 3 2 2 1 2 1.602
906 229 5 425 1 0 2 0 1 2 0.374
907 229 5 426 3 0 3 0 0 1 1.622
908 229 5 427 1 2 2 0 0 3 0.636
909 229 5 428 3 3 0 2 1 0 0.767
910 229 5 429 3 0 3 0 1 3 0.352
911 229 5 430 1 0 1 0 1 1 0.744
912 229 5 431 3 3 0 2 1 0 0.82
913 229 5 432 0 0 2 1 1 2 0.435
914 229 5 433 3 3 0 1 1 0 0.856
915 229 5 434 1 0 1 0 1 1 0.607
916 229 5 435 1 0 2 0 1 2 0.398
917 229 5 436 3 3 2 2 1 2 0.679
918 229 5 437 2 2 2 1 1 2 0.353
919 229 5 438 3 3 0 2 1 0 0.809
920 229 5 439 0 0 0 2 1 0 0.528
921 229 5 440 3 3 2 1 1 2 0.514
922 229 5 441 0 1 3 0 1 3 0.364
923 229 5 442 1 0 0 0 1 0 0.563
924 229 5 443 3 3 1 1 1 1 1.073
925 229 5 444 1 2 3 0 1 3 0.496
926 229 5 445 0 0 0 1 1 0 0.451
927 229 5 446 2 2 1 2 0 0 1.337
928 229 5 447 1 0 0 0 1 0 0.761
929 229 5 448 1 1 0 2 1 0 0.372
930 229 5 449 2 2 0 1 1 0 0.403
931 229 5 450 0 1 0 0 0 2 2.578
932 229 5 451 0 2 0 0 1 0 0.814
933 229 5 452 0 0 1 1 1 1 0.645
934 229 5 453 2 2 2 1 1 2 0.506
935 229 5 454 2 2 0 2 1 0 0.687
936 229 5 455 3 3 1 2 1 1 0.582
937 229 5 456 1 1 0 2 0 1 2.161
938 229 5 457 2 2 0 1 1 0 0.724
939 229 5 458 1 1 0 2 1 0 0.45
940 229 5 459 1 1 1 1 1 1 1.423
941 229 5 460 2 2 0 2 1 0 0.522
942 229 5 461 2 2 2 1 1 2 0.452
943 229 5 462 3 2 2 0 1 2 0.729
944 229 5 463 1 1 0 1 1 0 0.58
945 229 5 464 0 0 2 1 1 2 0.428
946 229 5 465 2 0 2 0 1 2 0.65
947 229 5 466 0 0 3 2 1 3 0.339
948 229 5 467 2 0 3 0 1 3 0.307
949 229 5 468 3 1 2 0 1 2 0.389
950 229 5 469 1 1 0 2 1 0 0.527
951 229 5 470 1 1 2 2 1 2 0.395
952 229 5 471 3 3 2 2 1 2 0.556
953 229 5 472 3 3 3 1 1 3 0.324
954 229 5 473 0 0 1 2 1 1 0.799
955 229 5 474 0 0 0 1 1 0 0.471
956 229 5 475 1 1 1 2 0 0 0.734
957 229 5 476 2 2 2 2 1 2 0.43
958 229 5 477 0 1 3 0 1 3 0.381
959 229 5 478 0 0 2 2 1 2 0.527
960 229 5 479 2 2 3 1 1 3 0.401
