datID sessionID block trial stimGlobA stimGLobB weightA correctResp resp rt
1 443 0 0 23 41 1 2 3 5.244
2 443 0 1 23 41 1 4 3 1.244
3 443 0 2 23 41 1 4 3 0.808
4 443 0 3 23 41 1 6 6 1.683
5 443 0 4 23 41 1 2 1 3.452
6 443 0 5 23 41 1 7 7 2.485
7 443 0 6 23 41 1 4 4 3.234
8 443 0 7 23 41 1 6 6 2.3
9 443 0 8 23 41 1 2 1 2.264
10 443 0 9 23 41 1 6 6 2.825
11 443 0 10 23 41 2 8 7 1.332
12 443 0 11 23 41 1 4 5 3.253
13 443 0 12 23 41 1 1 1 1.172
14 443 0 13 23 41 1 1 1 0.439
15 443 0 14 23 41 1 6 6 3.522
16 443 0 15 23 41 1 6 5 0.795
17 443 0 16 23 41 1 7 7 1.216
18 443 0 17 23 41 1 3 3 3.234
19 443 0 18 23 41 1 4 3 1.324
20 443 0 19 23 41 2 8 7 2.968
21 443 0 20 23 41 1 5 6 2.314
22 443 0 21 23 41 1 3 4 7.387
23 443 0 22 23 41 1 1 2 1.377
24 443 0 23 23 41 2 8 8 5.296
25 443 0 24 23 41 1 2 2 2.468
26 443 0 25 23 41 1 7 6 3.062
27 443 0 26 23 41 1 7 7 0.493
28 443 0 27 23 41 1 5 5 1.697
29 443 0 28 23 41 1 4 4 0.932
30 443 0 29 23 41 1 3 3 0.708
31 443 0 30 23 41 1 1 2 0.512
32 443 0 31 23 41 1 2 1 0.735
33 443 0 32 23 41 1 7 7 5.423
34 443 0 33 23 41 1 1 3 2.844
35 443 0 34 23 41 1 2 1 0.829
36 443 0 35 23 41 1 7 6 1.927
37 443 0 36 23 41 1 3 4 1.849
38 443 0 37 23 41 2 8 7 5.957
39 443 0 38 23 41 2 8 8 0.514
40 443 0 39 23 41 1 7 7 4.388
41 443 0 40 23 41 1 5 5 1.563
42 443 0 41 23 41 1 3 4 1.651
43 443 0 42 23 41 1 3 3 3.02
44 443 0 43 23 41 1 1 1 2.618
45 443 0 44 23 41 1 1 1 0.697
46 443 0 45 23 41 1 7 6 2.821
47 443 0 46 23 41 1 7 7 0.453
48 443 0 47 23 41 1 6 6 0.806
49 443 0 48 23 41 1 2 3 3.017
50 443 0 49 23 41 1 7 6 1.75
51 443 0 50 23 41 1 6 6 0.821
52 443 0 51 23 41 1 7 7 0.555
53 443 0 52 23 41 1 1 2 3.42
54 443 0 53 23 41 1 6 5 2.933
55 443 0 54 23 41 1 1 1 0.911
56 443 0 55 23 41 1 4 4 2.594
57 443 0 56 23 41 2 8 8 3.235
58 443 0 57 23 41 1 6 7 6.232
59 443 0 58 23 41 1 1 3 3.475
60 443 0 59 23 41 1 6 7 3.491
61 443 0 60 23 41 1 5 5 1.078
62 443 0 61 23 41 1 5 5 0.659
63 443 0 62 23 41 1 2 3 2.781
64 443 0 63 23 41 1 1 1 0.686
65 443 0 64 23 41 1 6 5 2.489
66 443 0 65 23 41 1 1 2 13.198
67 443 0 66 23 41 1 1 1 0.594
68 443 0 67 23 41 1 4 4 5.554
69 443 0 68 23 41 1 5 5 1.778
70 443 0 69 23 41 1 1 3 1.289
71 443 0 70 23 41 1 4 5 9.48
72 443 0 71 23 41 1 2 2 4.171
73 443 0 72 23 41 1 6 5 4.777
74 443 0 73 23 41 1 3 4 3.743
75 443 0 74 23 41 1 2 2 0.631
76 443 0 75 23 41 1 5 5 1.124
77 443 0 76 23 41 1 5 5 0.622
78 443 0 77 23 41 1 7 7 1.708
79 443 0 78 23 41 1 4 5 1.039
80 443 0 79 23 41 1 7 8 4.192
81 443 1 0 23 41 1 4 5 3.181
82 443 1 1 23 41 2 8 8 1.465
83 443 1 2 23 41 1 5 4 0.66
84 443 1 3 23 41 1 6 6 0.933
85 443 1 4 23 41 1 6 6 0.614
86 443 1 5 23 41 1 4 4 1.925
87 443 1 6 23 41 1 2 2 3.103
88 443 1 7 23 41 1 1 1 0.618
89 443 1 8 23 41 1 7 7 2.856
90 443 1 9 23 41 1 2 1 6.958
91 443 1 10 23 41 1 3 3 3.916
92 443 1 11 23 41 1 1 1 1.367
93 443 1 12 23 41 1 6 6 2.168
94 443 1 13 23 41 1 6 6 0.695
95 443 1 14 23 41 1 5 5 0.948
96 443 1 15 23 41 1 3 3 1.57
97 443 1 16 23 41 1 5 6 5.052
98 443 1 17 23 41 1 2 2 1.973
99 443 1 18 23 41 1 2 2 0.697
100 443 1 19 23 41 1 1 1 0.649
101 443 1 20 23 41 1 5 5 2.209
102 443 1 21 23 41 1 7 7 2.401
103 443 1 22 23 41 1 2 2 4.663
104 443 1 23 23 41 2 8 8 1.588
105 443 1 24 23 41 1 5 6 6.556
106 443 1 25 23 41 1 6 5 0.594
107 443 1 26 23 41 1 3 3 1.463
108 443 1 27 23 41 1 3 3 0.564
109 443 1 28 23 41 1 7 7 7.14
110 443 1 29 23 41 2 8 8 0.654
111 443 1 30 23 41 1 2 2 3.13
112 443 1 31 23 41 1 5 5 1.508
113 443 1 32 23 41 1 5 5 0.735
114 443 1 33 23 41 1 5 5 0.44
115 443 1 34 23 41 1 5 5 0.653
116 443 1 35 23 41 2 8 8 2.81
117 443 1 36 23 41 1 7 8 0.514
118 443 1 37 23 41 1 2 2 6.73
119 443 1 38 23 41 2 8 7 2.789
120 443 1 39 23 41 1 4 4 3.227
121 443 1 40 23 41 1 2 2 4.235
122 443 1 41 23 41 1 6 6 3.438
123 443 1 42 23 41 1 7 7 0.78
124 443 1 43 23 41 1 4 5 2.243
125 443 1 44 23 41 1 3 3 0.942
126 443 1 45 23 41 1 6 5 1.758
127 443 1 46 23 41 2 8 8 1.309
128 443 1 47 23 41 1 2 2 3.968
129 443 1 48 23 41 1 7 6 4.024
130 443 1 49 23 41 1 3 4 5.806
131 443 1 50 23 41 1 1 2 1.899
132 443 1 51 23 41 1 4 4 2.913
133 443 1 52 23 41 2 8 8 0.963
134 443 1 53 23 41 2 8 8 0.5
135 443 1 54 23 41 1 2 3 1.846
136 443 1 55 23 41 1 3 3 1.102
137 443 1 56 23 41 1 1 1 2.28
138 443 1 57 23 41 2 8 8 3.124
139 443 1 58 23 41 1 5 5 2.719
140 443 1 59 23 41 2 8 8 1.496
141 443 1 60 23 41 2 8 8 0.516
142 443 1 61 23 41 2 8 8 0.519
143 443 1 62 23 41 2 8 8 0.393
144 443 1 63 23 41 1 2 3 12.988
145 443 1 64 23 41 1 2 2 0.388
146 443 1 65 23 41 1 6 6 3.388
147 443 1 66 23 41 1 3 4 2.315
148 443 1 67 23 41 2 8 8 1.099
149 443 1 68 23 41 1 3 3 1.718
150 443 1 69 23 41 1 3 3 0.457
151 443 1 70 23 41 1 4 3 0.349
152 443 1 71 23 41 1 7 6 1.757
153 443 1 72 23 41 1 5 6 3.359
154 443 1 73 23 41 2 8 8 0.773
155 443 1 74 23 41 1 1 1 2.361
156 443 1 75 23 41 1 1 1 0.438
157 443 1 76 23 41 1 5 5 3.977
158 443 1 77 23 41 1 1 1 1.434
159 443 1 78 23 41 1 2 1 0.542
160 443 1 79 23 41 1 5 6 6.213
161 443 2 0 23 41 1 3 5 1.421
162 443 2 1 23 41 1 4 5 2.386
163 443 2 2 23 41 1 4 4 0.642
164 443 2 3 23 41 1 2 3 1.425
165 443 2 4 23 41 1 5 5 1.005
166 443 2 5 23 41 1 6 7 0.909
167 443 2 6 23 41 1 1 1 3.977
168 443 2 7 23 41 2 8 8 0.88
169 443 2 8 23 41 1 6 6 2.469
170 443 2 9 23 41 1 2 4 1.961
171 443 2 10 23 41 1 2 2 0.674
172 443 2 11 23 41 1 5 5 2.991
173 443 2 12 23 41 1 4 4 2.095
174 443 2 13 23 41 1 4 4 0.514
175 443 2 14 23 41 1 6 6 1.36
176 443 2 15 23 41 1 5 5 1.879
177 443 2 16 23 41 1 3 3 1.19
178 443 2 17 23 41 1 4 4 0.948
179 443 2 18 23 41 1 5 5 1.177
180 443 2 19 23 41 1 3 2 1.344
181 443 2 20 23 41 1 2 2 0.641
182 443 2 21 23 41 1 3 3 0.67
183 443 2 22 23 41 1 3 3 0.619
184 443 2 23 23 41 1 7 7 5.427
185 443 2 24 23 41 1 2 3 8.662
186 443 2 25 23 41 1 5 5 1.489
187 443 2 26 23 41 1 1 1 1.518
188 443 2 27 23 41 1 3 3 1.928
189 443 2 28 23 41 1 7 7 2.401
190 443 2 29 23 41 1 5 6 1.08
191 443 2 30 23 41 1 2 3 3.298
192 443 2 31 23 41 1 7 8 0.788
193 443 2 32 23 41 1 4 5 2.072
194 443 2 33 23 41 1 7 7 1.797
195 443 2 34 23 41 1 3 4 2.992
196 443 2 35 23 41 1 1 1 2.059
197 443 2 36 23 41 1 4 3 1.633
198 443 2 37 23 41 1 4 4 0.765
199 443 2 38 23 41 1 3 3 0.647
200 443 2 39 23 41 2 8 8 1.521
201 443 2 40 23 41 2 8 8 0.488
202 443 2 41 23 41 1 4 4 3.217
203 443 2 42 23 41 1 4 4 0.391
204 443 2 43 23 41 1 2 2 1.806
205 443 2 44 23 41 1 5 6 3.181
206 443 2 45 23 41 1 6 6 1.682
207 443 2 46 23 41 2 8 8 1.222
208 443 2 47 23 41 1 7 8 0.653
209 443 2 48 23 41 1 3 4 2.196
210 443 2 49 23 41 1 1 1 1.213
211 443 2 50 23 41 1 6 7 5.108
212 443 2 51 23 41 1 7 8 1.016
213 443 2 52 23 41 1 6 6 1.798
214 443 2 53 23 41 1 4 5 1.849
215 443 2 54 23 41 2 8 8 0.752
216 443 2 55 23 41 1 7 7 0.889
217 443 2 56 23 41 1 6 6 0.76
218 443 2 57 23 41 1 7 7 0.783
219 443 2 58 23 41 1 1 1 2.957
220 443 2 59 23 41 2 8 8 0.686
221 443 2 60 23 41 1 3 3 11.113
222 443 2 61 23 41 1 4 4 0.771
223 443 2 62 23 41 1 4 4 0.764
224 443 2 63 23 41 1 4 4 0.387
225 443 2 64 23 41 1 6 6 3.179
226 443 2 65 23 41 1 7 7 0.724
227 443 2 66 23 41 2 8 8 0.461
228 443 2 67 23 41 1 5 6 0.994
229 443 2 68 23 41 1 3 4 1.086
230 443 2 69 23 41 1 6 6 2.478
231 443 2 70 23 41 1 5 6 0.53
232 443 2 71 23 41 1 7 8 1.602
233 443 2 72 23 41 1 3 4 4.48
234 443 2 73 23 41 1 1 1 1.407
235 443 2 74 23 41 1 1 1 0.748
236 443 2 75 23 41 1 1 1 0.577
237 443 2 76 23 41 2 8 8 0.799
238 443 2 77 23 41 1 3 3 4.73
239 443 2 78 23 41 2 8 8 1.269
240 443 2 79 23 41 1 6 8 0.473
241 444 0 0 23 41 1 1 3 2.624
242 444 0 1 23 41 1 2 3 0.863
243 444 0 2 23 41 1 3 4 0.925
244 444 0 3 23 41 1 1 1 1.006
245 444 0 4 23 41 1 7 8 1.596
246 444 0 5 23 41 1 4 4 0.957
247 444 0 6 23 41 2 8 8 0.813
248 444 0 7 23 41 2 8 8 0.421
249 444 0 8 23 41 1 4 4 1.642
250 444 0 9 23 41 1 4 4 0.384
251 444 0 10 23 41 1 4 4 0.358
252 444 0 11 23 41 1 1 2 1.054
253 444 0 12 23 41 1 5 4 1.017
254 444 0 13 23 41 1 4 3 0.868
255 444 0 14 23 41 1 5 5 0.982
256 444 0 15 23 41 1 6 7 1.813
257 444 0 16 23 41 1 2 2 1.181
258 444 0 17 23 41 1 2 2 0.421
259 444 0 18 23 41 1 3 3 0.704
260 444 0 19 23 41 1 1 1 0.833
261 444 0 20 23 41 1 4 3 1.062
262 444 0 21 23 41 2 8 8 1.095
263 444 0 22 23 41 1 5 4 1.17
264 444 0 23 23 41 1 2 3 1.17
265 444 0 24 23 41 2 8 7 1.116
266 444 0 25 23 41 1 5 4 0.861
267 444 0 26 23 41 1 4 4 1.101
268 444 0 27 23 41 1 5 5 0.775
269 444 0 28 23 41 1 1 2 2.448
270 444 0 29 23 41 1 6 7 0.95
271 444 0 30 23 41 1 4 5 1.149
272 444 0 31 23 41 1 7 8 0.887
273 444 0 32 23 41 1 2 2 1.016
274 444 0 33 23 41 1 6 6 1.362
275 444 0 34 23 41 1 2 3 1.175
276 444 0 35 23 41 1 4 3 0.664
277 444 0 36 23 41 1 7 7 1.379
278 444 0 37 23 41 1 2 2 0.659
279 444 0 38 23 41 1 6 6 1.858
280 444 0 39 23 41 1 1 2 1.147
281 444 0 40 23 41 1 5 4 0.832
282 444 0 41 23 41 2 8 8 1.13
283 444 0 42 23 41 1 4 5 1.427
284 444 0 43 23 41 1 5 5 0.633
285 444 0 44 23 41 1 4 4 0.552
286 444 0 45 23 41 1 6 6 1.048
287 444 0 46 23 41 1 4 4 1.248
288 444 0 47 23 41 2 8 7 1.883
289 444 0 48 23 41 1 3 2 0.726
290 444 0 49 23 41 2 8 7 1.176
291 444 0 50 23 41 1 1 2 0.88
292 444 0 51 23 41 1 1 1 0.533
293 444 0 52 23 41 1 6 7 3.572
294 444 0 53 23 41 1 6 7 0.555
295 444 0 54 23 41 1 6 6 0.717
296 444 0 55 23 41 1 6 6 0.344
297 444 0 56 23 41 1 6 6 0.321
298 444 0 57 23 41 1 2 2 4.299
299 444 0 58 23 41 2 8 8 1.366
300 444 0 59 23 41 1 4 3 1.303
301 444 0 60 23 41 1 6 5 0.818
302 444 0 61 23 41 2 8 7 0.963
303 444 0 62 23 41 1 4 5 0.95
304 444 0 63 23 41 1 5 5 0.747
305 444 0 64 23 41 1 1 2 1.099
306 444 0 65 23 41 1 6 5 2.078
307 444 0 66 23 41 1 1 2 1.033
308 444 0 67 23 41 1 3 2 0.503
309 444 0 68 23 41 1 2 2 1.349
310 444 0 69 23 41 1 7 7 1.536
311 444 0 70 23 41 1 3 2 1.351
312 444 0 71 23 41 2 8 8 1.363
313 444 0 72 23 41 1 5 4 1.588
314 444 0 73 23 41 2 8 7 1.343
315 444 0 74 23 41 1 2 3 1.159
316 444 0 75 23 41 2 8 7 1.34
317 444 0 76 23 41 1 6 3 0.592
318 444 0 77 23 41 1 3 2 4.658
319 444 0 78 23 41 1 5 4 0.952
320 444 0 79 23 41 1 5 5 0.565
321 444 1 0 23 41 2 8 8 2.669
322 444 1 1 23 41 1 3 2 3.49
323 444 1 2 23 41 1 6 5 1.371
324 444 1 3 23 41 1 1 1 1.359
325 444 1 4 23 41 1 3 2 0.736
326 444 1 5 23 41 1 3 3 0.528
327 444 1 6 23 41 1 3 3 0.368
328 444 1 7 23 41 1 5 5 1.208
329 444 1 8 23 41 2 8 7 0.995
330 444 1 9 23 41 1 2 2 1.787
331 444 1 10 23 41 1 4 3 0.86
332 444 1 11 23 41 2 8 7 1.469
333 444 1 12 23 41 1 4 4 2.475
334 444 1 13 23 41 2 8 8 1.519
335 444 1 14 23 41 1 2 2 0.884
336 444 1 15 23 41 2 8 8 0.795
337 444 1 16 23 41 1 2 2 0.676
338 444 1 17 23 41 1 1 2 0.748
339 444 1 18 23 41 1 7 7 3.995
340 444 1 19 23 41 1 2 3 1.412
341 444 1 20 23 41 1 5 3 0.602
342 444 1 21 23 41 1 3 3 1.067
343 444 1 22 23 41 1 2 2 0.739
344 444 1 23 23 41 1 6 4 1.053
345 444 1 24 23 41 1 7 7 1.047
346 444 1 25 23 41 1 6 7 0.549
347 444 1 26 23 41 1 6 6 0.8
348 444 1 27 23 41 1 7 7 0.791
349 444 1 28 23 41 1 3 3 2.319
350 444 1 29 23 41 1 2 2 0.744
351 444 1 30 23 41 1 6 5 1.057
352 444 1 31 23 41 1 4 5 2.345
353 444 1 32 23 41 1 1 2 0.948
354 444 1 33 23 41 2 8 8 1.714
355 444 1 34 23 41 2 8 8 0.485
356 444 1 35 23 41 1 7 8 0.36
357 444 1 36 23 41 1 1 1 1.713
358 444 1 37 23 41 2 8 7 1.221
359 444 1 38 23 41 1 4 2 0.679
360 444 1 39 23 41 1 5 5 1.216
361 444 1 40 23 41 1 7 6 0.951
362 444 1 41 23 41 1 6 7 0.484
363 444 1 42 23 41 1 6 7 0.518
364 444 1 43 23 41 1 1 2 1.898
365 444 1 44 23 41 1 6 5 2.64
366 444 1 45 23 41 1 6 7 1.213
367 444 1 46 23 41 1 4 5 0.788
368 444 1 47 23 41 1 3 4 0.919
369 444 1 48 23 41 1 5 5 0.955
370 444 1 49 23 41 1 3 4 0.717
371 444 1 50 23 41 1 3 3 0.436
372 444 1 51 23 41 1 6 5 1.017
373 444 1 52 23 41 2 8 7 1.033
374 444 1 53 23 41 1 7 8 0.461
375 444 1 54 23 41 1 2 2 2.308
376 444 1 55 23 41 1 1 1 0.67
377 444 1 56 23 41 1 3 2 0.875
378 444 1 57 23 41 1 6 5 1.741
379 444 1 58 23 41 1 4 3 1.148
380 444 1 59 23 41 1 3 4 0.497
381 444 1 60 23 41 1 7 7 2.946
382 444 1 61 23 41 2 8 8 0.484
383 444 1 62 23 41 1 7 8 0.48
384 444 1 63 23 41 1 5 6 3.065
385 444 1 64 23 41 1 1 2 0.99
386 444 1 65 23 41 1 5 5 3.316
387 444 1 66 23 41 1 1 3 1.798
388 444 1 67 23 41 1 3 3 1.524
389 444 1 68 23 41 1 2 3 0.701
390 444 1 69 23 41 1 3 3 0.712
391 444 1 70 23 41 1 2 2 0.53
392 444 1 71 23 41 1 4 4 0.933
393 444 1 72 23 41 1 7 7 1.927
394 444 1 73 23 41 2 8 8 0.464
395 444 1 74 23 41 1 7 8 0.501
396 444 1 75 23 41 1 7 7 0.454
397 444 1 76 23 41 1 3 4 1.611
398 444 1 77 23 41 1 1 2 0.765
399 444 1 78 23 41 1 2 1 0.405
400 444 1 79 23 41 1 2 2 0.675
401 444 2 0 23 41 1 4 4 2.733
402 444 2 1 23 41 1 6 6 1.159
403 444 2 2 23 41 1 5 6 0.464
404 444 2 3 23 41 1 4 4 1.071
405 444 2 4 23 41 1 7 6 1.004
406 444 2 5 23 41 2 8 8 1.988
407 444 2 6 23 41 1 7 8 0.538
408 444 2 7 23 41 1 7 7 0.49
409 444 2 8 23 41 1 4 5 1.278
410 444 2 9 23 41 1 3 3 0.714
411 444 2 10 23 41 1 1 1 1.684
412 444 2 11 23 41 1 3 2 0.552
413 444 2 12 23 41 1 7 6 1.685
414 444 2 13 23 41 1 6 5 0.471
415 444 2 14 23 41 1 6 5 0.685
416 444 2 15 23 41 1 4 4 2.494
417 444 2 16 23 41 1 1 1 3.185
418 444 2 17 23 41 1 3 2 1.102
419 444 2 18 23 41 1 5 4 0.91
420 444 2 19 23 41 1 7 7 1.855
421 444 2 20 23 41 1 5 7 0.428
422 444 2 21 23 41 1 4 4 1.616
423 444 2 22 23 41 1 7 6 1.142
424 444 2 23 23 41 1 7 7 0.566
425 444 2 24 23 41 1 7 7 0.375
426 444 2 25 23 41 1 3 5 1.407
427 444 2 26 23 41 1 2 3 0.682
428 444 2 27 23 41 1 1 1 1.557
429 444 2 28 23 41 2 8 7 1.517
430 444 2 29 23 41 1 2 4 2.067
431 444 2 30 23 41 1 4 3 2.303
432 444 2 31 23 41 1 5 5 0.845
433 444 2 32 23 41 1 4 5 0.467
434 444 2 33 23 41 1 7 6 1.779
435 444 2 34 23 41 1 2 3 1.011
436 444 2 35 23 41 2 8 7 1.025
437 444 2 36 23 41 1 5 5 1.622
438 444 2 37 23 41 1 2 3 1.103
439 444 2 38 23 41 1 1 1 0.861
440 444 2 39 23 41 1 7 6 2.05
441 444 2 40 23 41 1 3 3 1.026
442 444 2 41 23 41 1 4 5 1.633
443 444 2 42 23 41 1 7 6 1.109
444 444 2 43 23 41 1 3 3 1.305
445 444 2 44 23 41 1 3 3 0.474
446 444 2 45 23 41 1 1 1 1.471
447 444 2 46 23 41 1 5 4 1.211
448 444 2 47 23 41 1 5 5 0.417
449 444 2 48 23 41 1 1 2 1.017
450 444 2 49 23 41 1 1 1 0.328
451 444 2 50 23 41 1 1 1 0.363
452 444 2 51 23 41 1 5 3 1.226
453 444 2 52 23 41 1 5 4 1.401
454 444 2 53 23 41 2 8 7 1.275
455 444 2 54 23 41 1 5 4 0.823
456 444 2 55 23 41 1 2 2 1.123
457 444 2 56 23 41 1 4 3 0.732
458 444 2 57 23 41 1 2 2 1.089
459 444 2 58 23 41 1 6 6 1.5
460 444 2 59 23 41 1 1 2 1.206
461 444 2 60 23 41 1 2 2 0.553
462 444 2 61 23 41 1 3 3 0.81
463 444 2 62 23 41 1 5 5 1.089
464 444 2 63 23 41 1 2 3 1.772
465 444 2 64 23 41 1 1 1 0.598
466 444 2 65 23 41 1 3 3 0.933
467 444 2 66 23 41 2 8 8 1.842
468 444 2 67 23 41 1 7 8 0.421
469 444 2 68 23 41 1 3 5 1.017
470 444 2 69 23 41 1 6 5 1.051
471 444 2 70 23 41 1 7 7 0.897
472 444 2 71 23 41 1 7 7 0.645
473 444 2 72 23 41 1 7 7 0.593
474 444 2 73 23 41 2 8 8 0.576
475 444 2 74 23 41 2 8 8 0.432
476 444 2 75 23 41 1 5 6 1.047
477 444 2 76 23 41 1 5 5 0.502
478 444 2 77 23 41 1 6 6 0.649
479 444 2 78 23 41 1 2 2 3.174
480 444 2 79 23 41 1 1 1 0.541
