datID sessionID block trial stimGlobA stimGLobB weightA correctResp resp rt
1 432 0 0 23 41 1 6 3 2.285
2 432 0 1 23 41 0 3 2 1.844
3 432 0 2 23 41 0 2 1 1.425
4 432 0 3 23 41 0 2 2 0.786
5 432 0 4 23 41 0 2 2 0.754
6 432 0 5 23 41 0 2 3 1.808
7 432 0 6 23 41 0 3 3 2.701
8 432 0 7 23 41 1 5 4 1.632
9 432 0 8 23 41 1 5 4 1.999
10 432 0 9 23 41 0 1 1 1.244
11 432 0 10 23 41 0 2 3 1.423
12 432 0 11 23 41 0 1 1 1.055
13 432 0 12 23 41 0 4 6 1.592
14 432 0 13 23 41 0 4 4 1.279
15 432 0 14 23 41 0 1 1 1.391
16 432 0 15 23 41 0 2 2 1.64
17 432 0 16 23 41 0 4 4 1.542
18 432 0 17 23 41 1 5 5 1.063
19 432 0 18 23 41 1 5 5 0.707
20 432 0 19 23 41 1 5 5 0.975
21 432 0 20 23 41 1 6 6 2.361
22 432 0 21 23 41 0 3 3 3.002
23 432 0 22 23 41 0 2 2 0.907
24 432 0 23 23 41 1 6 7 3.496
25 432 0 24 23 41 0 3 2 1.711
26 432 0 25 23 41 0 1 1 0.85
27 432 0 26 23 41 0 1 1 0.642
28 432 0 27 23 41 1 8 8 1.349
29 432 0 28 23 41 1 7 7 1.111
30 432 0 29 23 41 1 5 3 4.156
31 432 0 30 23 41 0 3 3 5.402
32 432 0 31 23 41 0 2 2 1.051
33 432 0 32 23 41 1 6 6 1.692
34 432 0 33 23 41 1 6 6 0.899
35 432 0 34 23 41 1 5 6 0.727
36 432 0 35 23 41 0 1 1 1.316
37 432 0 36 23 41 1 5 5 3.058
38 432 0 37 23 41 0 2 2 1.523
39 432 0 38 23 41 1 8 8 1.366
40 432 0 39 23 41 0 4 4 7.741
41 432 0 40 23 41 1 8 8 1.38
42 432 0 41 23 41 0 2 2 1.634
43 432 0 42 23 41 0 1 1 0.894
44 432 0 43 23 41 1 8 8 1.131
45 432 0 44 23 41 0 3 2 1.471
46 432 0 45 23 41 0 2 2 1.018
47 432 0 46 23 41 1 8 8 1.219
48 432 0 47 23 41 1 5 6 1.547
49 432 0 48 23 41 0 2 2 1.492
50 432 0 49 23 41 1 5 3 2.387
51 432 0 50 23 41 1 8 8 1.581
52 432 0 51 23 41 1 8 8 0.553
53 432 0 52 23 41 0 3 4 5.864
54 432 0 53 23 41 1 6 7 1.239
55 432 0 54 23 41 0 4 5 1.431
56 432 0 55 23 41 0 2 2 1.875
57 432 0 56 23 41 1 5 6 3.777
58 432 0 57 23 41 0 2 2 1.348
59 432 0 58 23 41 1 5 5 1.404
60 432 0 59 23 41 0 1 1 1.57
61 432 0 60 23 41 1 8 8 1.25
62 432 0 61 23 41 1 8 8 0.634
63 432 0 62 23 41 0 4 5 2.604
64 432 0 63 23 41 1 8 8 1.437
65 432 0 64 23 41 1 6 5 1.628
66 432 0 65 23 41 1 7 7 1.256
67 432 0 66 23 41 0 3 3 2.789
68 432 0 67 23 41 0 2 3 0.569
69 432 0 68 23 41 0 4 4 2.156
70 432 0 69 23 41 0 1 1 1.408
71 432 0 70 23 41 1 7 7 3.592
72 432 0 71 23 41 0 4 4 1.951
73 432 0 72 23 41 1 7 7 2.558
74 432 0 73 23 41 1 7 7 0.603
75 432 0 74 23 41 1 8 7 1.329
76 432 0 75 23 41 1 7 7 1.167
77 432 0 76 23 41 0 1 1 3.234
78 432 0 77 23 41 1 7 7 1.376
79 432 0 78 23 41 1 5 4 2.128
80 432 0 79 23 41 1 7 8 1.184
81 432 1 0 23 41 1 7 6 4.932
82 432 1 1 23 41 0 3 1 1.223
83 432 1 2 23 41 1 6 4 2.016
84 432 1 3 23 41 1 5 4 1.693
85 432 1 4 23 41 1 7 7 1.322
86 432 1 5 23 41 1 6 6 1.186
87 432 1 6 23 41 0 3 3 3.932
88 432 1 7 23 41 1 8 7 2.923
89 432 1 8 23 41 1 6 4 1.7
90 432 1 9 23 41 1 7 6 2.524
91 432 1 10 23 41 0 3 3 1.528
92 432 1 11 23 41 0 2 2 1.028
93 432 1 12 23 41 1 6 7 4.848
94 432 1 13 23 41 0 1 1 0.89
95 432 1 14 23 41 1 7 7 2.847
96 432 1 15 23 41 0 4 4 1.677
97 432 1 16 23 41 1 5 6 1.662
98 432 1 17 23 41 1 7 6 4.679
99 432 1 18 23 41 1 6 6 1.376
100 432 1 19 23 41 0 3 2 1.499
101 432 1 20 23 41 1 6 6 2.49
102 432 1 21 23 41 1 7 7 1.357
103 432 1 22 23 41 0 2 2 1.321
104 432 1 23 23 41 1 7 7 2.849
105 432 1 24 23 41 0 1 2 1.61
106 432 1 25 23 41 0 4 3 1.593
107 432 1 26 23 41 0 3 3 1.526
108 432 1 27 23 41 1 7 7 3.075
109 432 1 28 23 41 1 5 4 2.581
110 432 1 29 23 41 1 8 8 1.777
111 432 1 30 23 41 1 8 8 0.492
112 432 1 31 23 41 1 6 6 1.444
113 432 1 32 23 41 0 4 3 2.496
114 432 1 33 23 41 0 3 3 1.429
115 432 1 34 23 41 0 2 2 2.564
116 432 1 35 23 41 1 5 5 1.493
117 432 1 36 23 41 0 3 4 8.689
118 432 1 37 23 41 0 4 4 2.518
119 432 1 38 23 41 1 5 5 1.274
120 432 1 39 23 41 0 1 1 2.701
121 432 1 40 23 41 1 6 6 1.49
122 432 1 41 23 41 0 1 1 0.962
123 432 1 42 23 41 1 7 7 1.196
124 432 1 43 23 41 1 7 7 1.091
125 432 1 44 23 41 1 7 7 0.778
126 432 1 45 23 41 0 2 7 0.186
127 432 1 46 23 41 0 1 2 0.95
128 432 1 47 23 41 0 1 1 2.254
129 432 1 48 23 41 1 7 7 3.127
130 432 1 49 23 41 0 4 3 2.774
131 432 1 50 23 41 0 4 4 1.086
132 432 1 51 23 41 0 1 1 1.799
133 432 1 52 23 41 0 4 5 6.247
134 432 1 53 23 41 0 4 5 1.137
135 432 1 54 23 41 0 1 1 1.28
136 432 1 55 23 41 1 7 7 1.437
137 432 1 56 23 41 0 1 1 1.037
138 432 1 57 23 41 1 6 6 4.079
139 432 1 58 23 41 0 3 3 2.754
140 432 1 59 23 41 1 5 3 1.677
141 432 1 60 23 41 0 2 1 1.157
142 432 1 61 23 41 1 7 7 1.363
143 432 1 62 23 41 0 4 4 1.935
144 432 1 63 23 41 1 5 4 0.546
145 432 1 64 23 41 1 7 7 4.199
146 432 1 65 23 41 1 8 8 1.645
147 432 1 66 23 41 0 4 2 1.644
148 432 1 67 23 41 0 3 4 1.144
149 432 1 68 23 41 1 5 4 2.823
150 432 1 69 23 41 1 8 8 3.12
151 432 1 70 23 41 0 3 4 7.75
152 432 1 71 23 41 1 6 6 1.552
153 432 1 72 23 41 1 6 6 0.625
154 432 1 73 23 41 1 8 8 1.125
155 432 1 74 23 41 1 6 5 1.472
156 432 1 75 23 41 0 2 1 2.997
157 432 1 76 23 41 1 5 4 1.924
158 432 1 77 23 41 1 6 5 3.222
159 432 1 78 23 41 0 1 1 2.296
160 432 1 79 23 41 1 5 5 3.19
161 432 2 0 23 41 1 6 5 2.417
162 432 2 1 23 41 1 5 6 3.259
163 432 2 2 23 41 0 2 3 3.595
164 432 2 3 23 41 1 8 8 1.476
165 432 2 4 23 41 1 7 7 2.078
166 432 2 5 23 41 1 8 8 1.25
167 432 2 6 23 41 0 2 1 1.703
168 432 2 7 23 41 0 4 4 1.602
169 432 2 8 23 41 1 6 6 3.527
170 432 2 9 23 41 0 3 3 3.889
171 432 2 10 23 41 0 3 3 0.754
172 432 2 11 23 41 0 3 3 0.693
173 432 2 12 23 41 0 4 2 2.123
174 432 2 13 23 41 0 3 3 2.449
175 432 2 14 23 41 1 8 8 3.776
176 432 2 15 23 41 1 5 5 2.375
177 432 2 16 23 41 1 6 5 0.708
178 432 2 17 23 41 0 1 1 1.737
179 432 2 18 23 41 1 5 5 3.658
180 432 2 19 23 41 1 7 7 1.885
181 432 2 20 23 41 1 7 7 0.722
182 432 2 21 23 41 0 1 1 1.839
183 432 2 22 23 41 0 3 3 2.864
184 432 2 23 23 41 1 8 8 1.752
185 432 2 24 23 41 1 6 5 7.624
186 432 2 25 23 41 1 8 8 2.16
187 432 2 26 23 41 1 8 8 0.578
188 432 2 27 23 41 0 2 1 1.385
189 432 2 28 23 41 0 4 4 1.727
190 432 2 29 23 41 1 7 7 3.109
191 432 2 30 23 41 0 4 4 3.068
192 432 2 31 23 41 0 4 4 0.565
193 432 2 32 23 41 0 1 1 1.672
194 432 2 33 23 41 0 3 3 4.824
195 432 2 34 23 41 0 2 2 1.147
196 432 2 35 23 41 1 5 5 3.781
197 432 2 36 23 41 1 7 8 1.713
198 432 2 37 23 41 0 2 1 1.112
199 432 2 38 23 41 0 4 2 1.241
200 432 2 39 23 41 0 4 4 1.073
201 432 2 40 23 41 0 4 4 0.586
202 432 2 41 23 41 0 1 1 1.224
203 432 2 42 23 41 0 1 1 1.074
204 432 2 43 23 41 0 4 4 3.341
205 432 2 44 23 41 0 2 2 3.414
206 432 2 45 23 41 0 1 1 1.18
207 432 2 46 23 41 1 8 8 1.891
208 432 2 47 23 41 1 7 7 3.161
209 432 2 48 23 41 1 5 5 3.464
210 432 2 49 23 41 1 6 6 1.506
211 432 2 50 23 41 0 3 3 4.061
212 432 2 51 23 41 0 2 2 1.912
213 432 2 52 23 41 1 5 5 5.066
214 432 2 53 23 41 0 3 3 2.601
215 432 2 54 23 41 1 6 6 4.202
216 432 2 55 23 41 1 5 5 2.037
217 432 2 56 23 41 1 6 6 1.066
218 432 2 57 23 41 1 8 8 1.187
219 432 2 58 23 41 0 4 4 3.996
220 432 2 59 23 41 0 1 2 3.218
221 432 2 60 23 41 1 8 8 1.602
222 432 2 61 23 41 1 8 7 1.975
223 432 2 62 23 41 0 4 4 3.469
224 432 2 63 23 41 0 3 3 1.165
225 432 2 64 23 41 0 1 2 9.254
226 432 2 65 23 41 0 2 2 0.766
227 432 2 66 23 41 1 6 6 1.627
228 432 2 67 23 41 0 2 2 2.061
229 432 2 68 23 41 1 8 8 1.411
230 432 2 69 23 41 0 1 3 1.576
231 432 2 70 23 41 0 1 1 0.73
232 432 2 71 23 41 1 6 6 4.088
233 432 2 72 23 41 0 3 2 2.688
234 432 2 73 23 41 1 8 8 1.197
235 432 2 74 23 41 1 8 7 1.292
236 432 2 75 23 41 0 3 1 5.352
237 432 2 76 23 41 1 7 8 2.228
238 432 2 77 23 41 0 4 4 2.142
239 432 2 78 23 41 1 6 6 2.362
240 432 2 79 23 41 0 3 3 1.838
241 433 0 0 23 41 1 5 1 8.951
242 433 0 1 23 41 0 1 1 2.17
243 433 0 2 23 41 0 2 2 1.237
244 433 0 3 23 41 1 6 6 2.592
245 433 0 4 23 41 1 6 7 4.895
246 433 0 5 23 41 1 7 6 0.526
247 433 0 6 23 41 0 2 2 4.678
248 433 0 7 23 41 1 7 5 2.769
249 433 0 8 23 41 1 5 5 2.248
250 433 0 9 23 41 0 3 3 4.301
251 433 0 10 23 41 1 8 6 3.801
252 433 0 11 23 41 1 5 4 2.268
253 433 0 12 23 41 0 3 2 2.75
254 433 0 13 23 41 0 2 2 3.368
255 433 0 14 23 41 1 6 7 6.888
256 433 0 15 23 41 0 4 2 6.699
257 433 0 16 23 41 0 1 1 0.891
258 433 0 17 23 41 0 1 2 1.518
259 433 0 18 23 41 0 3 2 0.689
260 433 0 19 23 41 0 3 2 1.343
261 433 0 20 23 41 1 5 4 6.013
262 433 0 21 23 41 0 4 4 0.661
263 433 0 22 23 41 1 5 5 0.925
264 433 0 23 23 41 1 5 5 1.151
265 433 0 24 23 41 0 4 4 0.825
266 433 0 25 23 41 1 6 8 6.718
267 433 0 26 23 41 1 6 6 0.943
268 433 0 27 23 41 1 5 7 4.543
269 433 0 28 23 41 0 4 4 1.517
270 433 0 29 23 41 0 2 1 2.344
271 433 0 30 23 41 1 5 3 4.041
272 433 0 31 23 41 1 5 5 1.588
273 433 0 32 23 41 0 3 3 4.763
274 433 0 33 23 41 1 7 7 2.329
275 433 0 34 23 41 1 5 3 5.883
276 433 0 35 23 41 1 7 6 8.033
277 433 0 36 23 41 1 6 6 1.589
278 433 0 37 23 41 1 6 6 0.668
279 433 0 38 23 41 0 1 1 4.211
280 433 0 39 23 41 0 4 4 1.622
281 433 0 40 23 41 1 7 6 2.364
282 433 0 41 23 41 0 2 1 1.626
283 433 0 42 23 41 0 1 1 0.818
284 433 0 43 23 41 1 8 8 1.54
285 433 0 44 23 41 1 5 5 3.391
286 433 0 45 23 41 1 8 7 4.285
287 433 0 46 23 41 1 8 8 0.522
288 433 0 47 23 41 1 5 5 1.997
289 433 0 48 23 41 0 4 4 2.388
290 433 0 49 23 41 0 3 3 1.42
291 433 0 50 23 41 0 3 3 0.714
292 433 0 51 23 41 1 7 7 12.884
293 433 0 52 23 41 1 7 7 1.321
294 433 0 53 23 41 1 6 6 3.611
295 433 0 54 23 41 1 7 7 3.325
296 433 0 55 23 41 0 3 2 2.148
297 433 0 56 23 41 0 3 3 1.184
298 433 0 57 23 41 1 8 8 5.285
299 433 0 58 23 41 1 8 8 0.68
300 433 0 59 23 41 0 2 2 11.364
301 433 0 60 23 41 0 2 2 0.576
302 433 0 61 23 41 0 1 1 0.972
303 433 0 62 23 41 1 8 8 1.579
304 433 0 63 23 41 1 8 8 0.712
305 433 0 64 23 41 1 6 7 13.923
306 433 0 65 23 41 0 4 4 2.344
307 433 0 66 23 41 0 3 3 1.618
308 433 0 67 23 41 1 8 8 5.929
309 433 0 68 23 41 1 8 8 0.482
310 433 0 69 23 41 1 5 5 2.262
311 433 0 70 23 41 1 7 8 1.522
312 433 0 71 23 41 0 1 1 1.166
313 433 0 72 23 41 1 5 5 5.222
314 433 0 73 23 41 1 8 8 1.974
315 433 0 74 23 41 0 3 3 4.76
316 433 0 75 23 41 0 3 3 0.624
317 433 0 76 23 41 0 3 3 0.495
318 433 0 77 23 41 0 2 2 1.345
319 433 0 78 23 41 0 2 2 0.595
320 433 0 79 23 41 1 6 6 3.583
321 433 1 0 23 41 0 2 2 1.805
322 433 1 1 23 41 1 8 8 5.044
323 433 1 2 23 41 1 6 6 4.966
324 433 1 3 23 41 0 2 2 2.76
325 433 1 4 23 41 1 6 6 2.225
326 433 1 5 23 41 1 6 6 0.606
327 433 1 6 23 41 1 5 5 2.604
328 433 1 7 23 41 1 8 8 9.403
329 433 1 8 23 41 0 1 1 2.587
330 433 1 9 23 41 0 1 1 0.617
331 433 1 10 23 41 1 8 8 2.89
332 433 1 11 23 41 0 1 1 1.124
333 433 1 12 23 41 1 8 8 3.629
334 433 1 13 23 41 0 3 2 1.185
335 433 1 14 23 41 0 4 4 1.363
336 433 1 15 23 41 0 2 2 3.124
337 433 1 16 23 41 1 6 6 4.555
338 433 1 17 23 41 0 1 1 1.191
339 433 1 18 23 41 1 7 7 2.68
340 433 1 19 23 41 0 3 3 2.788
341 433 1 20 23 41 1 8 8 2.412
342 433 1 21 23 41 1 6 6 2.082
343 433 1 22 23 41 0 2 2 1.991
344 433 1 23 23 41 1 7 7 7.868
345 433 1 24 23 41 1 5 3 3.136
346 433 1 25 23 41 0 1 1 3.836
347 433 1 26 23 41 0 1 1 0.568
348 433 1 27 23 41 0 2 2 0.867
349 433 1 28 23 41 1 7 6 4.908
350 433 1 29 23 41 0 4 4 1.748
351 433 1 30 23 41 0 3 3 1.702
352 433 1 31 23 41 1 7 6 5.32
353 433 1 32 23 41 1 7 7 0.604
354 433 1 33 23 41 0 2 2 1.194
355 433 1 34 23 41 1 8 8 1.953
356 433 1 35 23 41 1 7 6 2.635
357 433 1 36 23 41 1 5 5 1.606
358 433 1 37 23 41 1 7 7 3.437
359 433 1 38 23 41 0 2 2 0.906
360 433 1 39 23 41 0 4 4 1.676
361 433 1 40 23 41 1 7 7 1.409
362 433 1 41 23 41 0 2 2 0.799
363 433 1 42 23 41 1 8 8 1.311
364 433 1 43 23 41 1 6 6 1.669
365 433 1 44 23 41 1 8 8 1.232
366 433 1 45 23 41 0 4 4 1.656
367 433 1 46 23 41 1 5 5 1.82
368 433 1 47 23 41 1 7 7 1.962
369 433 1 48 23 41 1 7 6 1.075
370 433 1 49 23 41 0 1 1 2.308
371 433 1 50 23 41 0 1 1 0.557
372 433 1 51 23 41 0 2 2 0.973
373 433 1 52 23 41 1 7 7 2.283
374 433 1 53 23 41 0 1 1 4.597
375 433 1 54 23 41 0 1 1 0.477
376 433 1 55 23 41 0 1 1 0.502
377 433 1 56 23 41 1 6 6 2.017
378 433 1 57 23 41 1 6 6 1.901
379 433 1 58 23 41 0 3 3 2.592
380 433 1 59 23 41 1 8 8 1.157
381 433 1 60 23 41 1 8 8 0.637
382 433 1 61 23 41 1 7 7 3.047
383 433 1 62 23 41 0 3 3 1.593
384 433 1 63 23 41 0 3 3 0.512
385 433 1 64 23 41 0 4 4 1.33
386 433 1 65 23 41 1 5 5 2.372
387 433 1 66 23 41 1 8 8 6.701
388 433 1 67 23 41 0 1 1 7.992
389 433 1 68 23 41 0 4 4 1.673
390 433 1 69 23 41 0 1 1 0.817
391 433 1 70 23 41 1 5 5 1.589
392 433 1 71 23 41 1 7 7 3.762
393 433 1 72 23 41 0 3 3 1.514
394 433 1 73 23 41 0 1 1 2.149
395 433 1 74 23 41 1 5 6 1.991
396 433 1 75 23 41 0 3 3 1.747
397 433 1 76 23 41 1 7 7 1.893
398 433 1 77 23 41 0 3 3 1.52
399 433 1 78 23 41 1 8 8 1.22
400 433 1 79 23 41 1 6 5 5.313
401 433 2 0 23 41 0 1 2 1.277
402 433 2 1 23 41 1 5 5 1.741
403 433 2 2 23 41 0 4 4 1.837
404 433 2 3 23 41 1 6 6 4.907
405 433 2 4 23 41 1 8 8 0.91
406 433 2 5 23 41 0 4 4 1.76
407 433 2 6 23 41 1 6 6 2.459
408 433 2 7 23 41 1 5 5 1.078
409 433 2 8 23 41 0 1 1 1.073
410 433 2 9 23 41 1 7 7 2.509
411 433 2 10 23 41 0 4 4 1.425
412 433 2 11 23 41 1 8 8 0.991
413 433 2 12 23 41 1 5 5 1.324
414 433 2 13 23 41 1 7 7 5.581
415 433 2 14 23 41 0 1 1 2.933
416 433 2 15 23 41 1 5 5 3.575
417 433 2 16 23 41 1 8 8 0.976
418 433 2 17 23 41 1 6 6 6.694
419 433 2 18 23 41 0 3 3 1.65
420 433 2 19 23 41 0 1 1 2.2
421 433 2 20 23 41 0 1 1 1.09
422 433 2 21 23 41 1 8 8 0.923
423 433 2 22 23 41 0 2 2 0.974
424 433 2 23 23 41 0 2 2 0.432
425 433 2 24 23 41 0 2 2 0.406
426 433 2 25 23 41 0 4 4 1.529
427 433 2 26 23 41 0 4 4 0.709
428 433 2 27 23 41 1 6 6 2.598
429 433 2 28 23 41 0 2 2 1.626
430 433 2 29 23 41 0 3 2 0.479
431 433 2 30 23 41 0 2 2 0.781
432 433 2 31 23 41 1 5 5 3.929
433 433 2 32 23 41 0 4 4 1.303
434 433 2 33 23 41 1 7 6 9.209
435 433 2 34 23 41 0 2 2 0.861
436 433 2 35 23 41 0 4 4 1.266
437 433 2 36 23 41 1 8 8 1.282
438 433 2 37 23 41 1 6 6 3.258
439 433 2 38 23 41 0 4 4 1.262
440 433 2 39 23 41 0 4 4 0.772
441 433 2 40 23 41 0 2 2 1.378
442 433 2 41 23 41 1 6 6 2.54
443 433 2 42 23 41 1 7 7 2.909
444 433 2 43 23 41 0 4 4 1.327
445 433 2 44 23 41 1 6 6 1.474
446 433 2 45 23 41 1 5 5 1.085
447 433 2 46 23 41 0 2 2 1.353
448 433 2 47 23 41 1 5 5 3.923
449 433 2 48 23 41 0 4 4 1.034
450 433 2 49 23 41 0 3 3 3.031
451 433 2 50 23 41 0 4 4 3.669
452 433 2 51 23 41 1 6 6 5.721
453 433 2 52 23 41 0 2 2 1.02
454 433 2 53 23 41 0 2 2 0.601
455 433 2 54 23 41 0 1 1 0.777
456 433 2 55 23 41 0 4 4 1.679
457 433 2 56 23 41 0 4 4 2.639
458 433 2 57 23 41 0 3 3 1.361
459 433 2 58 23 41 0 4 4 0.766
460 433 2 59 23 41 1 6 6 2.087
461 433 2 60 23 41 1 7 7 2.533
462 433 2 61 23 41 1 5 5 3.307
463 433 2 62 23 41 1 8 8 1.375
464 433 2 63 23 41 0 4 4 1.493
465 433 2 64 23 41 0 3 3 1.165
466 433 2 65 23 41 1 7 8 1.398
467 433 2 66 23 41 0 2 2 1.101
468 433 2 67 23 41 1 8 8 1.097
469 433 2 68 23 41 0 3 3 2.963
470 433 2 69 23 41 1 7 7 1.572
471 433 2 70 23 41 1 5 5 2.365
472 433 2 71 23 41 0 4 4 1.013
473 433 2 72 23 41 0 1 1 1.204
474 433 2 73 23 41 0 2 2 0.523
475 433 2 74 23 41 0 3 5 2.937
476 433 2 75 23 41 1 6 6 6.877
477 433 2 76 23 41 0 1 1 6.193
478 433 2 77 23 41 0 1 1 0.352
479 433 2 78 23 41 0 3 5 1.768
480 433 2 79 23 41 1 6 6 2.139
481 434 0 0 23 41 1 6 6 2.414
482 434 0 1 23 41 1 8 8 1.918
483 434 0 2 23 41 1 8 7 1.046
484 434 0 3 23 41 0 1 1 1.975
485 434 0 4 23 41 0 1 1 0.837
486 434 0 5 23 41 0 2 2 10.442
487 434 0 6 23 41 1 7 8 1.471
488 434 0 7 23 41 0 1 2 1.689
489 434 0 8 23 41 1 7 8 1.438
490 434 0 9 23 41 0 2 1 2.761
491 434 0 10 23 41 0 1 2 0.608
492 434 0 11 23 41 0 1 1 0.865
493 434 0 12 23 41 0 3 4 1.956
494 434 0 13 23 41 1 5 4 1.014
495 434 0 14 23 41 0 2 4 0.882
496 434 0 15 23 41 0 2 2 0.636
497 434 0 16 23 41 1 5 5 1.723
498 434 0 17 23 41 1 8 8 1.343
499 434 0 18 23 41 0 4 3 2.545
500 434 0 19 23 41 0 3 5 0.793
501 434 0 20 23 41 1 6 5 1.253
502 434 0 21 23 41 0 4 4 1.535
503 434 0 22 23 41 0 4 4 0.648
504 434 0 23 23 41 1 6 3 1.282
505 434 0 24 23 41 1 8 8 1.221
506 434 0 25 23 41 1 7 7 0.857
507 434 0 26 23 41 1 8 8 0.688
508 434 0 27 23 41 1 7 7 0.555
509 434 0 28 23 41 0 1 1 1.676
510 434 0 29 23 41 1 6 5 1.215
511 434 0 30 23 41 0 3 3 1.829
512 434 0 31 23 41 0 1 1 1.273
513 434 0 32 23 41 1 7 7 1.339
514 434 0 33 23 41 1 7 7 0.685
515 434 0 34 23 41 1 5 5 1.347
516 434 0 35 23 41 1 6 6 0.635
517 434 0 36 23 41 1 8 8 1.351
518 434 0 37 23 41 1 5 6 1.923
519 434 0 38 23 41 0 4 6 1.719
520 434 0 39 23 41 1 7 7 1.347
521 434 0 40 23 41 1 6 6 1.257
522 434 0 41 23 41 1 7 7 1.096
523 434 0 42 23 41 0 2 2 2.308
524 434 0 43 23 41 0 3 2 3.632
525 434 0 44 23 41 0 3 3 0.654
526 434 0 45 23 41 1 8 8 2.217
527 434 0 46 23 41 1 7 7 0.704
528 434 0 47 23 41 0 3 4 1.65
529 434 0 48 23 41 0 3 3 0.644
530 434 0 49 23 41 1 6 6 3.009
531 434 0 50 23 41 1 5 5 0.608
532 434 0 51 23 41 0 3 4 1.231
533 434 0 52 23 41 0 2 2 1.074
534 434 0 53 23 41 1 6 6 1.342
535 434 0 54 23 41 1 8 7 0.975
536 434 0 55 23 41 0 1 1 1.636
537 434 0 56 23 41 1 5 4 1.997
538 434 0 57 23 41 1 6 6 0.773
539 434 0 58 23 41 1 8 8 1.533
540 434 0 59 23 41 1 8 8 0.808
541 434 0 60 23 41 0 1 1 1.384
542 434 0 61 23 41 0 2 1 0.953
543 434 0 62 23 41 0 3 3 0.926
544 434 0 63 23 41 1 5 4 0.896
545 434 0 64 23 41 0 2 3 2.537
546 434 0 65 23 41 0 4 3 0.716
547 434 0 66 23 41 1 5 4 0.707
548 434 0 67 23 41 0 2 2 1.078
549 434 0 68 23 41 1 7 7 1.207
550 434 0 69 23 41 1 5 4 3.166
551 434 0 70 23 41 0 2 2 2.261
552 434 0 71 23 41 0 1 1 0.821
553 434 0 72 23 41 0 4 3 1.224
554 434 0 73 23 41 1 7 7 1.858
555 434 0 74 23 41 0 3 3 2.638
556 434 0 75 23 41 0 1 1 1.196
557 434 0 76 23 41 0 1 2 1.086
558 434 0 77 23 41 0 3 2 0.633
559 434 0 78 23 41 1 5 4 1.003
560 434 0 79 23 41 1 8 7 1.11
561 434 1 0 23 41 0 3 3 2.093
562 434 1 1 23 41 0 4 3 1.259
563 434 1 2 23 41 0 4 4 0.825
564 434 1 3 23 41 0 2 5 0.911
565 434 1 4 23 41 1 8 8 1.427
566 434 1 5 23 41 1 5 3 2.769
567 434 1 6 23 41 0 3 5 1.989
568 434 1 7 23 41 1 6 7 1.339
569 434 1 8 23 41 0 2 4 1.296
570 434 1 9 23 41 1 8 8 1.358
571 434 1 10 23 41 0 4 3 2.225
572 434 1 11 23 41 0 4 4 0.74
573 434 1 12 23 41 0 3 4 0.813
574 434 1 13 23 41 1 7 7 2.55
575 434 1 14 23 41 1 7 7 0.839
576 434 1 15 23 41 0 1 1 1.308
577 434 1 16 23 41 1 7 7 3.822
578 434 1 17 23 41 1 6 6 0.669
579 434 1 18 23 41 0 1 1 1.29
580 434 1 19 23 41 0 4 2 1.485
581 434 1 20 23 41 1 6 6 3.604
582 434 1 21 23 41 1 8 8 1.595
583 434 1 22 23 41 1 8 7 0.849
584 434 1 23 23 41 0 4 5 1.321
585 434 1 24 23 41 1 7 7 1.885
586 434 1 25 23 41 1 7 7 0.622
587 434 1 26 23 41 0 3 4 2.716
588 434 1 27 23 41 0 2 2 1.109
589 434 1 28 23 41 1 6 6 2.688
590 434 1 29 23 41 1 5 5 2.75
591 434 1 30 23 41 0 1 1 1.478
592 434 1 31 23 41 0 2 2 1.032
593 434 1 32 23 41 1 6 4 3.303
594 434 1 33 23 41 0 4 4 1.939
595 434 1 34 23 41 0 4 4 0.807
596 434 1 35 23 41 0 1 1 1.356
597 434 1 36 23 41 1 7 7 1.214
598 434 1 37 23 41 0 4 3 1.332
599 434 1 38 23 41 0 4 4 0.782
600 434 1 39 23 41 1 8 7 1.482
601 434 1 40 23 41 0 2 2 1.728
602 434 1 41 23 41 1 7 7 1.794
603 434 1 42 23 41 1 8 8 1.027
604 434 1 43 23 41 1 5 6 1.597
605 434 1 44 23 41 0 4 6 0.784
606 434 1 45 23 41 1 6 3 1.099
607 434 1 46 23 41 0 3 3 2.007
608 434 1 47 23 41 1 8 8 1.903
609 434 1 48 23 41 1 7 7 1.177
610 434 1 49 23 41 0 1 1 2.001
611 434 1 50 23 41 1 5 5 2.52
612 434 1 51 23 41 0 3 3 1.636
613 434 1 52 23 41 1 5 5 1.458
614 434 1 53 23 41 0 4 4 0.786
615 434 1 54 23 41 1 5 3 1.123
616 434 1 55 23 41 0 3 3 1.28
617 434 1 56 23 41 0 3 3 0.675
618 434 1 57 23 41 1 7 7 1.231
619 434 1 58 23 41 1 6 6 2.012
620 434 1 59 23 41 1 8 8 1.115
621 434 1 60 23 41 0 4 4 2.011
622 434 1 61 23 41 0 1 3 1.293
623 434 1 62 23 41 1 6 6 2.401
624 434 1 63 23 41 1 6 6 1.192
625 434 1 64 23 41 0 4 4 1.184
626 434 1 65 23 41 0 3 3 0.951
627 434 1 66 23 41 0 2 1 1.692
628 434 1 67 23 41 1 7 8 1.264
629 434 1 68 23 41 0 3 3 2.251
630 434 1 69 23 41 0 2 3 1.374
631 434 1 70 23 41 1 5 5 3.905
632 434 1 71 23 41 1 5 5 1.084
633 434 1 72 23 41 0 2 1 2.456
634 434 1 73 23 41 0 2 2 0.77
635 434 1 74 23 41 1 8 8 1.258
636 434 1 75 23 41 1 8 8 1.707
637 434 1 76 23 41 1 5 5 4.081
638 434 1 77 23 41 0 4 4 0.837
639 434 1 78 23 41 0 2 3 1.675
640 434 1 79 23 41 1 8 8 1.166
641 434 2 0 23 41 1 7 7 3.629
642 434 2 1 23 41 1 6 6 0.972
643 434 2 2 23 41 1 5 5 1.131
644 434 2 3 23 41 0 4 4 0.646
645 434 2 4 23 41 0 2 3 0.915
646 434 2 5 23 41 1 5 3 1.823
647 434 2 6 23 41 0 1 1 1.545
648 434 2 7 23 41 1 8 8 1.074
649 434 2 8 23 41 0 2 1 1.063
650 434 2 9 23 41 1 7 7 2.167
651 434 2 10 23 41 1 6 6 3.175
652 434 2 11 23 41 1 6 6 0.71
653 434 2 12 23 41 0 3 3 3.218
654 434 2 13 23 41 0 3 3 0.924
655 434 2 14 23 41 0 3 3 0.736
656 434 2 15 23 41 0 2 3 0.681
657 434 2 16 23 41 1 8 8 1.015
658 434 2 17 23 41 1 5 2 1.293
659 434 2 18 23 41 1 7 7 3.066
660 434 2 19 23 41 1 5 6 1.127
661 434 2 20 23 41 0 4 4 1.043
662 434 2 21 23 41 0 1 1 2.177
663 434 2 22 23 41 1 6 5 2.415
664 434 2 23 23 41 0 4 4 1.08
665 434 2 24 23 41 1 6 5 1.251
666 434 2 25 23 41 1 6 6 0.514
667 434 2 26 23 41 0 1 1 2.389
668 434 2 27 23 41 0 1 1 0.507
669 434 2 28 23 41 1 7 7 1.329
670 434 2 29 23 41 0 2 2 1.528
671 434 2 30 23 41 1 5 3 2.976
672 434 2 31 23 41 0 3 3 1.759
673 434 2 32 23 41 1 5 5 1.267
674 434 2 33 23 41 1 8 8 1.544
675 434 2 34 23 41 0 2 2 2.177
676 434 2 35 23 41 1 5 5 2.193
677 434 2 36 23 41 0 4 4 0.865
678 434 2 37 23 41 0 3 5 1.396
679 434 2 38 23 41 0 3 3 0.538
680 434 2 39 23 41 0 2 2 1.743
681 434 2 40 23 41 0 4 4 1.176
682 434 2 41 23 41 0 4 4 1.9
683 434 2 42 23 41 1 7 7 1.835
684 434 2 43 23 41 1 7 7 0.857
685 434 2 44 23 41 0 1 1 1.982
686 434 2 45 23 41 1 5 5 2.31
687 434 2 46 23 41 0 1 1 3.328
688 434 2 47 23 41 1 8 8 1.234
689 434 2 48 23 41 1 5 3 2.28
690 434 2 49 23 41 1 6 6 1.181
691 434 2 50 23 41 0 2 2 1.686
692 434 2 51 23 41 1 6 6 3.976
693 434 2 52 23 41 1 5 5 1.681
694 434 2 53 23 41 1 6 6 1.173
695 434 2 54 23 41 1 7 7 1.054
696 434 2 55 23 41 0 4 4 1.89
697 434 2 56 23 41 1 8 8 3.089
698 434 2 57 23 41 0 2 2 1.468
699 434 2 58 23 41 1 7 7 1.123
700 434 2 59 23 41 0 4 4 1.155
701 434 2 60 23 41 0 1 1 1.501
702 434 2 61 23 41 0 1 1 0.738
703 434 2 62 23 41 0 1 1 0.448
704 434 2 63 23 41 0 1 1 0.501
705 434 2 64 23 41 0 3 3 2.04
706 434 2 65 23 41 0 1 1 1.951
707 434 2 66 23 41 1 7 7 1.24
708 434 2 67 23 41 0 1 1 1.534
709 434 2 68 23 41 1 6 5 2.392
710 434 2 69 23 41 0 2 2 2.636
711 434 2 70 23 41 1 6 6 3.353
712 434 2 71 23 41 0 3 3 1.784
713 434 2 72 23 41 0 4 4 0.792
714 434 2 73 23 41 0 2 2 1.228
715 434 2 74 23 41 1 6 5 1.57
716 434 2 75 23 41 1 8 8 1.542
717 434 2 76 23 41 1 8 8 0.501
718 434 2 77 23 41 1 5 5 3.148
719 434 2 78 23 41 0 3 3 1.46
720 434 2 79 23 41 1 8 8 1.303
