datID sessionID block trial word col resp rt
2 45 0 0 3 2 1 1.058
3 45 0 1 2 3 0 2.022
4 46 0 0 2 3 2 1.306
5 46 0 1 1 1 0 2.478
6 46 0 2 3 2 2 2.296
7 46 0 3 2 1 0 1.546
8 46 0 4 1 2 1 0.811
9 46 0 5 2 3 2 1.494
10 46 0 6 2 2 1 1.934
11 46 0 7 3 2 1 4.378
12 46 0 8 2 3 2 0.653
13 46 0 9 1 1 0 0.539
14 46 0 10 2 1 0 0.594
15 46 0 11 2 1 0 0.564
16 46 0 12 1 2 1 0.761
17 46 0 13 2 1 0 0.669
18 46 0 14 1 1 0 0.491
19 46 0 15 1 2 1 1.108
20 46 0 16 1 2 1 0.76
21 46 0 17 3 1 2 1.102
22 46 0 18 1 1 0 4.603
23 46 0 19 3 2 1 0.969
24 46 0 20 3 3 2 0.641
25 46 0 21 2 1 2 1.005
26 46 0 22 1 2 1 0.685
27 46 0 23 2 1 0 0.687
28 46 0 24 2 1 0 0.984
29 46 0 25 1 1 2 0.858
30 46 0 26 2 2 1 1.01
31 46 0 27 1 2 1 0.769
32 46 0 28 1 3 0 0.683
33 46 0 29 2 2 0 2.742
34 46 0 30 1 3 1 0.275
35 46 0 31 1 1 0 0.941
36 46 0 32 2 1 0 0.827
37 46 0 33 3 2 1 0.669
38 46 0 34 1 1 2 0.715
39 46 0 35 3 1 0 1.327
40 46 0 36 3 1 0 0.543
41 46 0 37 2 1 0 0.869
42 46 0 38 1 3 0 0.603
43 46 0 39 1 3 2 0.843
44 46 1 40 1 2 1 0.975
45 46 1 41 3 3 2 1.046
46 46 1 42 2 3 2 0.677
47 46 1 43 2 2 1 1.174
48 46 1 44 2 2 1 0.623
49 46 1 45 2 1 1 0.299
50 49 0 0 1 3 2 0.958
51 49 0 1 3 3 0 0.962
52 49 0 2 1 2 2 0.931
53 49 0 3 1 3 2 1.525
54 49 0 4 2 3 2 1.542
55 49 0 5 3 3 2 1.206
56 49 0 6 3 2 0 0.979
57 49 0 7 2 3 2 1.395
58 49 0 8 3 1 1 2.025
59 49 0 9 1 3 2 0.803
60 49 0 10 2 2 0 1.214
61 49 0 11 2 2 1 1.558
62 49 0 12 3 3 2 0.71
63 49 0 13 1 3 2 0.884
64 49 0 14 1 1 0 0.908
65 49 0 15 3 1 1 1.155
66 49 0 16 2 1 2 0.909
67 49 0 17 3 3 2 1.008
68 49 0 18 3 2 1 1.203
69 49 0 19 3 2 1 1.055
70 49 0 20 3 2 2 0.865
71 49 0 21 3 2 1 2.917
72 49 0 22 1 2 1 0.916
73 49 0 23 2 1 0 5.131
74 49 0 24 1 1 0 0.939
75 49 0 25 1 1 2 3.264
76 49 0 26 1 3 2 9.055
77 49 0 27 1 2 1 1.234
78 49 0 28 3 2 1 1.181
79 49 0 29 3 1 0 1.146
80 49 0 30 1 2 2 1.385
81 49 0 31 2 1 2 0.779
82 49 0 32 2 1 0 1.634
83 49 0 33 2 2 1 1.135
84 49 0 34 2 2 2 0.973
85 49 0 35 1 2 2 1.246
86 49 0 36 1 3 2 0.869
87 49 0 37 2 2 1 2.061
88 49 0 38 2 2 1 1.097
89 49 0 39 1 2 1 0.954
90 49 1 40 3 1 2 0.895
91 49 1 41 2 2 2 1.522
92 49 1 42 3 1 0 2.207
93 49 1 43 1 2 1 2.503
94 49 1 44 2 1 0 0.773
95 49 1 45 1 1 0 1.697
96 49 1 46 1 2 1 1.547
97 49 1 47 3 2 1 2.458
98 49 1 48 3 1 0 0.922
99 49 1 49 1 2 1 2.448
100 49 1 50 3 1 2 7.68
101 50 0 0 2 2 1 0.954
102 50 0 1 3 1 1 1.023
103 50 0 2 1 1 2 1.342
104 50 0 3 3 3 2 1.905
105 50 0 4 1 2 1 1.381
106 50 0 5 3 3 0 1.162
107 50 0 6 2 2 2 3.316
108 50 0 7 2 3 0 1.024
109 50 0 8 1 3 2 1.936
110 50 0 9 2 1 0 1.122
111 50 0 10 2 1 1 1.201
112 50 0 11 2 1 0 1.561
113 50 0 12 2 2 1 1.705
114 50 0 13 1 1 1 1.955
115 50 0 14 1 2 1 1.104
116 50 0 15 2 1 0 2.64
117 50 0 16 1 1 1 1.817
118 50 0 17 3 3 2 0.924
119 50 0 18 2 2 1 1.106
120 50 0 19 3 3 2 0.896
121 50 0 20 2 3 1 1.175
122 50 0 21 3 2 1 1.073
123 50 0 22 1 3 2 1.233
124 50 0 23 3 3 0 2.301
125 50 0 24 3 2 1 2.349
126 50 0 25 2 3 2 1.408
127 50 0 26 1 2 1 0.79
128 50 0 27 1 3 1 1.393
129 50 0 28 2 3 2 1.026
130 50 0 29 3 3 0 1.317
131 50 0 30 2 3 1 2.729
132 50 0 31 2 1 0 1.211
133 50 0 32 1 3 0 1.095
134 50 0 33 1 3 1 8.339
135 50 0 34 3 2 1 1.9
136 50 0 35 1 1 1 2.959
137 50 0 36 1 2 1 0.841
138 50 0 37 1 3 2 2.21
139 50 0 38 2 2 1 1.242
140 50 0 39 2 2 1 1.382
141 50 1 40 3 1 1 1.674
142 50 1 41 1 1 2 2.113
143 50 1 42 2 1 0 1.657
144 50 1 43 2 1 1 1.333
145 50 1 44 2 1 0 2.329
146 50 1 45 1 3 2 1.405
147 50 1 46 1 3 2 2.099
148 50 1 47 2 1 1 1.711
149 50 1 48 3 2 2 1.797
150 50 1 49 2 1 0 2.088
151 50 1 50 3 2 1 1.157
152 50 1 51 2 2 1 1.747
153 50 1 52 2 2 1 1.179
154 50 1 53 2 2 0 1.544
155 50 1 54 2 1 0 0.916
156 50 1 55 3 3 2 1.019
157 50 1 56 3 2 1 1.421
158 50 1 57 3 3 2 0.898
159 50 1 58 1 3 2 1.162
160 50 1 59 2 2 0 2.808
161 50 1 60 1 3 2 0.854
162 50 1 61 2 1 0 2.223
163 50 1 62 3 2 1 48.871
164 50 1 63 3 3 2 0.921
165 50 1 64 1 1 1 1.471
166 50 1 65 2 3 2 1.789
167 50 1 66 3 2 1 1.029
168 50 1 67 1 2 1 1.176
169 50 1 68 1 3 2 0.757
170 50 1 69 3 1 0 1.329
171 50 1 70 2 1 2 1.337
172 50 1 71 3 2 1 1.069
173 50 1 72 1 2 2 1.486
174 50 1 73 3 3 2 1.211
175 50 1 74 2 3 2 16.6
176 50 1 75 3 2 1 1.375
177 50 1 76 2 3 2 1.334
178 50 1 77 1 3 2 2.142
179 50 1 78 3 3 2 1.065
180 50 1 79 1 3 2 0.858
181 50 2 80 2 2 1 0.961
182 50 2 81 2 3 2 1.862
183 50 2 82 1 3 2 18.203
184 50 2 83 3 2 1 3.974
185 50 2 84 1 1 0 15.471
186 50 2 85 2 1 1 0.86
187 50 2 86 1 2 1 2.753
188 50 2 87 2 2 1 1.222
189 50 2 88 2 3 2 0.817
190 50 2 89 3 3 2 8.044
191 50 2 90 2 1 2 4.067
192 50 2 91 2 3 2 1.381
193 50 2 92 3 3 2 1.659
194 50 2 93 1 3 2 1.287
195 50 2 94 1 3 1 0.896
196 50 2 95 3 1 1 1.187
197 50 2 96 2 1 0 9.42
198 50 2 97 1 3 2 1.09
199 50 2 98 1 3 1 2.098
200 50 2 99 3 1 1 16.731
201 50 2 100 1 3 2 1.751
202 50 2 101 1 3 0 0.944
203 51 0 0 3 1 2 1.853
204 51 0 1 1 3 2 1.326
205 51 0 2 1 1 0 1.347
206 51 0 3 3 2 1 1.083
207 51 0 4 3 1 2 1.595
208 51 0 5 1 3 2 0.774
209 51 0 6 2 3 2 0.977
210 51 0 7 3 3 2 0.806
211 51 0 8 3 3 2 0.848
212 51 0 9 2 3 2 0.841
213 51 0 10 3 3 2 0.77
214 51 0 11 2 1 1 1.454
215 51 0 12 2 1 0 0.877
216 51 0 13 2 3 2 1.557
217 51 0 14 2 3 2 0.725
218 51 0 15 1 1 0 2.594
219 51 0 16 2 1 1 1.901
220 51 0 17 3 3 2 0.972
221 51 0 18 2 1 0 9.121
222 51 0 19 3 2 1 0.994
223 51 0 20 2 3 2 1.542
224 51 0 21 1 2 1 1.142
225 51 0 22 1 3 2 1.637
226 51 0 23 1 1 1 4.337
227 51 0 24 1 3 2 1.098
228 51 0 25 1 3 2 0.922
229 51 0 26 3 2 1 1.248
230 51 0 27 3 3 2 1.019
231 51 0 28 3 3 2 2.174
232 51 0 29 3 2 1 0.888
233 51 0 30 1 1 1 2.879
234 51 0 31 1 3 2 3.083
235 51 0 32 3 2 1 1.045
236 51 0 33 1 2 1 3.495
237 51 0 34 1 1 0 1.537
238 51 0 35 1 1 0 0.833
239 51 0 36 3 2 1 1.019
240 51 0 37 1 1 0 1.182
241 51 0 38 2 2 1 1.099
242 51 0 39 1 1 0 3.323
243 51 1 40 2 2 1 1.233
244 51 1 41 2 2 1 0.716
245 51 1 42 3 1 0 1.643
246 51 1 43 3 1 0 31.32
247 51 1 44 3 3 2 1.389
248 51 1 45 1 3 2 0.723
249 51 1 46 3 3 2 0.737
250 51 1 47 3 2 1 0.83
251 51 1 48 2 2 1 1.208
252 51 1 49 2 2 1 0.564
253 51 1 50 2 2 1 0.471
254 51 1 51 1 3 2 1.134
255 51 1 52 1 3 2 0.813
256 51 1 53 1 3 2 0.743
257 51 1 54 1 2 1 0.836
258 51 1 55 3 2 1 0.75
259 51 1 56 3 2 1 0.506
260 51 1 57 2 1 0 1.343
261 51 1 58 2 3 2 0.918
262 51 1 59 3 3 2 0.625
263 53 0 0 1 2 1 3.003
264 53 0 1 1 1 0 1.127
265 53 0 2 1 1 0 1.694
266 53 0 3 2 2 1 1.313
267 53 0 4 3 2 1 0.81
268 53 0 5 2 2 1 0.717
269 53 0 6 3 3 2 0.883
270 53 0 7 2 2 1 0.658
271 53 0 8 2 3 2 1.074
272 53 0 9 2 1 0 0.787
273 53 0 10 1 2 1 1.255
274 53 0 11 2 1 0 1.145
275 53 0 12 2 1 0 0.6
276 53 0 13 3 2 1 0.913
277 53 0 14 1 2 1 1.296
278 53 0 15 1 3 2 1.017
279 51 1 60 1 1 0 60.818
280 53 0 16 2 1 0 1.908
281 53 0 17 1 3 2 1.103
282 51 1 61 2 2 1 4.295
283 51 1 62 2 3 2 0.837
284 53 0 18 3 1 0 3.671
285 53 0 19 1 1 0 0.675
286 53 0 20 2 1 0 1.179
287 51 1 63 1 1 1 1.278
288 53 0 21 1 3 2 0.96
289 51 1 64 3 3 2 1.076
290 53 0 22 3 2 1 0.805
291 53 0 23 3 2 0 0.928
292 53 0 24 1 3 2 3.274
293 53 0 25 3 3 2 0.749
294 53 0 26 3 3 2 0.946
295 53 0 27 2 2 1 0.751
296 53 0 28 1 2 1 1.089
297 51 1 65 3 2 1 14.917
298 53 0 29 3 3 2 1.321
299 53 0 30 3 2 1 0.697
300 51 1 66 1 1 0 2.198
301 53 0 31 3 1 0 1.04
302 51 1 67 2 1 1 1.343
303 53 0 32 2 3 2 1.794
304 53 0 33 2 3 2 0.664
305 53 0 34 2 3 2 0.88
306 51 1 68 2 1 2 2.162
307 53 0 35 1 1 0 1.44
308 51 1 69 2 3 2 1.288
309 53 0 36 3 1 1 2.252
310 51 1 70 3 1 1 1.233
311 53 0 37 1 3 2 0.887
312 53 0 38 3 2 1 0.719
313 51 1 71 3 1 0 2.488
314 51 1 72 2 3 2 1.878
315 51 1 73 2 1 1 1.226
316 53 0 39 2 3 0 4.997
317 51 1 74 1 3 2 2.962
318 53 1 40 1 1 1 1.656
319 53 1 41 2 3 2 1.2
320 53 1 42 1 3 2 0.829
321 53 1 43 3 1 1 2.055
322 53 1 44 3 2 1 0.905
323 53 1 45 1 3 2 1.728
324 53 1 46 3 1 1 1.658
325 53 1 47 2 2 1 1.29
326 53 1 48 1 1 0 2.731
327 53 1 49 2 3 2 2.521
328 53 1 50 2 2 1 1.158
329 53 1 51 2 1 0 1.58
330 53 1 52 1 3 2 1.371
331 53 1 53 3 2 1 0.898
332 53 1 54 3 1 0 1.041
333 53 1 55 1 3 2 1.643
334 53 1 56 3 1 1 1.384
335 53 1 57 2 2 1 0.594
336 53 1 58 2 1 2 1.756
337 53 1 59 2 1 1 1.72
338 53 1 60 3 3 2 1.094
339 53 1 61 1 3 2 1.638
340 53 1 62 3 3 2 1.235
341 53 1 63 2 1 1 3.59
342 53 1 64 2 2 1 0.785
343 53 1 65 3 1 2 2.74
344 53 1 66 2 2 1 0.709
345 53 1 67 3 2 1 0.827
346 53 1 68 1 3 2 1.413
347 53 1 69 3 1 0 4.018
348 53 1 70 2 1 2 5.889
349 53 1 71 3 1 0 1.601
350 53 1 72 1 1 0 5.543
351 53 1 73 2 2 1 0.672
352 53 1 74 1 2 1 1.504
353 53 1 75 1 3 0 3.377
354 53 1 76 2 3 2 2.508
355 53 1 77 2 3 0 2.641
356 53 1 78 3 3 2 5.254
357 53 1 79 1 3 1 1.985
358 53 2 80 1 3 1 1.35
359 53 2 81 1 3 2 2.089
360 53 2 82 3 3 1 3.606
361 53 2 83 3 1 1 2.608
362 53 2 84 1 1 0 0.882
363 53 2 85 3 2 1 0.714
364 53 2 86 3 3 2 6.248
365 53 2 87 2 2 1 0.607
366 53 2 88 3 3 2 0.753
367 53 2 89 2 2 1 0.693
368 53 2 90 1 2 1 1.204
369 53 2 91 2 2 1 0.56
370 53 2 92 1 1 0 2.836
371 53 2 93 3 2 1 0.686
372 53 2 94 2 1 0 2.604
373 53 2 95 2 1 0 1.191
374 53 2 96 2 3 2 1.156
375 53 2 97 1 3 2 2.018
376 53 2 98 2 3 0 2.185
377 53 2 99 1 2 1 0.63
378 53 2 100 3 1 0 2.543
379 53 2 101 2 1 0 3.131
380 53 2 102 1 2 1 1.019
381 53 2 103 2 3 2 1.038
382 53 2 104 1 3 2 0.792
383 53 2 105 2 2 1 0.587
384 53 2 106 3 1 0 1.389
385 53 2 107 3 1 0 0.779
386 53 2 108 2 1 0 3.478
387 53 2 109 3 2 1 0.697
388 53 2 110 3 3 2 1.408
389 53 2 111 3 1 0 3.069
390 53 2 112 3 2 1 0.663
391 53 2 113 3 2 1 0.551
392 53 2 114 1 3 2 2.715
393 53 2 115 2 3 1 2.889
394 53 2 116 1 2 1 0.805
395 53 2 117 2 3 0 3.879
396 53 2 118 2 2 1 0.688
397 53 2 119 2 2 1 0.438
398 53 3 120 1 2 1 0.698
399 53 3 121 3 2 1 0.504
400 53 3 122 2 3 2 2.534
401 53 3 123 2 2 1 0.522
402 53 3 124 2 1 0 1.335
403 53 3 125 1 2 1 0.662
404 53 3 126 2 2 1 0.758
405 53 3 127 1 2 1 0.515
406 53 3 128 2 3 2 4.136
407 53 3 129 1 2 1 0.564
408 53 3 130 2 3 0 5.095
409 53 3 131 1 1 0 1.94
410 53 3 132 1 2 1 0.774
411 53 3 133 3 1 0 1.45
412 53 3 134 1 3 2 1.574
413 53 3 135 2 3 2 2.565
414 53 3 136 1 3 2 1.992
415 53 3 137 2 3 2 1.353
416 53 3 138 3 2 1 0.639
417 53 3 139 1 2 1 0.504
418 53 3 140 3 3 2 1.798
419 53 3 141 3 3 2 1.821
420 53 3 142 1 1 0 0.739
421 53 3 143 1 2 1 0.801
422 53 3 144 2 2 1 1.068
423 53 3 145 1 1 0 1.182
424 53 3 146 2 1 0 6.483
425 53 3 147 1 1 0 2.026
426 53 3 148 1 2 1 0.657
427 53 3 149 1 1 0 0.825
428 54 0 0 1 2 1 4.984
429 53 3 150 1 2 1 0.651
430 53 3 151 1 3 2 1.075
431 53 3 152 2 3 2 0.788
432 54 0 1 3 2 0 2.108
433 53 3 153 3 1 0 1.199
434 54 0 2 3 1 0 1.924
435 53 3 154 3 3 2 0.852
436 54 0 3 1 3 2 0.775
437 54 0 4 3 3 2 0.675
438 53 3 155 3 3 2 2.141
439 54 0 5 2 3 2 0.658
440 53 3 156 3 2 1 0.504
441 54 0 6 3 3 2 0.434
442 54 0 7 2 3 2 0.569
443 53 3 157 1 1 0 1.669
444 54 0 8 1 2 1 0.621
445 53 3 158 2 2 1 0.601
446 54 0 9 3 3 2 0.718
447 53 3 159 3 3 2 1.115
448 54 0 10 1 3 2 1.468
449 54 0 11 3 3 2 0.623
450 54 0 12 2 1 0 0.624
451 53 4 160 1 1 0 1.551
452 54 0 13 1 2 1 0.817
453 53 4 161 2 2 1 0.566
454 53 4 162 2 2 1 0.529
455 54 0 14 1 1 0 0.907
456 53 4 163 1 1 0 1.742
457 54 0 15 2 3 2 2.306
458 53 4 164 3 3 2 1.207
459 54 0 16 1 1 0 0.951
460 54 0 17 1 3 2 0.685
461 54 0 18 2 2 1 0.604
462 53 4 165 3 3 1 2.259
463 54 0 19 2 1 0 0.845
464 54 0 20 2 1 0 0.439
465 53 4 166 3 3 2 1.646
466 54 0 21 2 2 0 0.238
467 53 4 167 2 1 1 1.018
468 53 4 168 1 1 1 3.481
469 53 4 169 3 3 2 1.04
470 53 4 170 3 2 1 0.728
471 53 4 171 1 3 2 1.214
472 53 4 172 1 3 0 2.202
473 53 4 173 3 1 2 1.991
474 53 4 174 1 1 0 2.491
475 53 4 175 3 3 2 1.121
476 53 4 176 1 3 2 1.136
477 53 4 177 1 1 0 2.255
478 53 4 178 2 1 0 2.006
479 53 4 179 1 2 1 0.654
480 53 4 180 2 2 1 0.765
481 53 4 181 2 1 0 1.063
482 53 4 182 3 1 0 0.841
483 53 4 183 1 2 1 0.634
484 53 4 184 1 1 0 2.579
485 53 4 185 2 1 0 1.398
486 53 4 186 3 1 0 0.858
487 53 4 187 2 3 2 1.21
488 53 4 188 3 3 2 1.039
489 53 4 189 3 2 1 0.697
490 53 4 190 1 2 2 1.24
491 53 4 191 3 3 2 0.79
492 53 4 192 1 3 2 0.961
493 53 4 193 3 3 2 1.31
494 53 4 194 2 3 2 1.103
495 53 4 195 1 1 2 2.31
496 53 4 196 1 2 1 0.639
497 53 4 197 3 3 2 0.839
498 53 4 198 3 2 1 0.673
499 53 4 199 1 2 1 1.056
500 53 5 200 3 1 0 1.816
501 53 5 201 3 2 1 0.686
502 53 5 202 2 3 2 1.045
503 53 5 203 2 2 1 0.647
504 53 5 204 2 1 0 1.183
505 53 5 205 2 2 1 0.564
506 53 5 206 3 2 1 1.303
507 53 5 207 3 2 1 0.8
508 53 5 208 2 1 0 1.707
509 53 5 209 3 3 2 1.853
510 53 5 210 3 1 0 1.954
511 53 5 211 3 3 2 2.227
512 53 5 212 1 2 1 0.62
513 53 5 213 1 2 1 2.461
514 53 5 214 1 2 1 0.476
515 53 5 215 2 3 2 0.803
516 53 5 216 1 3 2 1.189
517 53 5 217 1 2 1 0.626
518 53 5 218 3 3 2 0.795
519 53 5 219 2 3 2 1.518
520 53 5 220 1 1 0 1.431
521 53 5 221 2 2 1 0.635
522 53 5 222 2 3 2 2.668
523 53 5 223 1 1 0 1.292
524 53 5 224 1 3 2 1.245
525 53 5 225 2 3 2 1.184
526 53 5 226 1 2 1 0.773
527 53 5 227 1 1 0 0.984
528 53 5 228 3 2 1 1.476
529 53 5 229 2 1 0 0.991
530 53 5 230 3 2 1 1.155
531 53 5 231 1 3 2 1.137
532 53 5 232 2 3 2 3.887
533 53 5 233 2 3 2 0.771
534 53 5 234 3 1 0 1.519
535 53 5 235 1 2 1 0.648
536 53 5 236 3 2 1 0.712
537 53 5 237 1 3 2 1.366
538 53 5 238 1 3 2 1.041
539 53 5 239 3 3 0 2.283
540 53 6 240 1 1 0 1.029
541 53 6 241 3 2 1 0.6
542 53 6 242 2 1 0 1.57
543 53 6 243 1 2 2 0.889
544 53 6 244 1 3 2 1.205
545 53 6 245 1 3 2 1.497
546 53 6 246 2 2 1 0.627
547 53 6 247 2 1 0 0.916
548 53 6 248 3 3 2 1.203
549 53 6 249 3 1 0 3.279
550 53 6 250 3 3 2 0.873
551 53 6 251 3 2 1 1.082
552 53 6 252 3 2 1 0.634
553 53 6 253 2 2 1 0.507
554 53 6 254 1 3 2 1.168
555 53 6 255 1 3 2 1.182
556 53 6 256 2 2 1 0.652
557 53 6 257 2 1 0 0.996
558 53 6 258 1 2 1 0.808
559 53 6 259 2 3 2 0.954
560 53 6 260 1 3 2 2.136
561 53 6 261 2 3 2 1.29
562 53 6 262 1 1 0 0.747
563 53 6 263 1 3 0 0.472
564 53 6 264 2 1 0 0.842
565 53 6 265 3 2 1 2.581
566 53 6 266 2 2 1 0.56
567 53 6 267 3 1 0 1.459
568 53 6 268 3 2 1 0.798
569 53 6 269 1 3 2 1.409
570 53 6 270 3 3 2 1.39
571 53 6 271 3 2 1 0.732
572 53 6 272 2 1 0 0.713
573 53 6 273 2 3 2 1.431
574 53 6 274 3 3 2 0.947
575 53 6 275 1 2 1 0.785
576 53 6 276 1 3 0 1.829
577 53 6 277 2 3 2 5.45
578 53 6 278 3 3 0 1.358
579 53 6 279 2 3 2 1.696
580 53 7 280 2 3 0 6.814
581 53 7 281 2 1 1 2.005
582 53 7 282 3 3 0 2.288
583 53 7 283 3 2 1 0.689
584 53 7 284 3 1 0 1.344
585 53 7 285 3 1 0 1.422
586 53 7 286 2 1 2 2.019
587 53 7 287 3 3 2 1.278
588 53 7 288 2 1 0 2.024
589 53 7 289 1 2 1 0.711
590 53 7 290 1 2 1 0.829
591 53 7 291 1 3 2 2.503
592 53 7 292 1 1 0 1.301
593 53 7 293 1 1 0 0.574
594 53 7 294 2 1 0 3.201
595 53 7 295 3 1 0 2.286
596 53 7 296 3 2 1 0.979
597 53 7 297 3 3 2 4.184
598 53 7 298 2 3 2 1.41
599 53 7 299 2 1 0 1.775
600 53 7 300 2 1 0 1.183
601 53 7 301 3 2 1 0.852
602 53 7 302 2 1 0 7.308
603 53 7 303 3 1 1 1.006
604 53 7 304 3 2 1 0.941
605 53 7 305 1 1 0 2.283
606 53 7 306 1 1 2 2.313
607 53 7 307 3 1 0 4.241
608 53 7 308 3 1 0 1.393
609 53 7 309 3 1 0 1.638
610 53 7 310 3 2 1 0.827
611 53 7 311 1 1 0 1.973
612 53 7 312 1 1 1 5.102
613 53 7 313 1 2 1 0.787
614 53 7 314 3 3 2 1.15
615 53 7 315 2 2 1 0.708
616 53 7 316 1 3 2 1.626
617 53 7 317 2 1 0 2.704
618 53 7 318 2 3 2 1.294
619 53 7 319 3 2 1 1.016
620 55 0 0 1 2 1 1.028
621 55 0 1 3 2 1 3.646
622 55 0 2 3 2 1 1.155
623 55 0 3 2 1 0 1.105
624 55 0 4 2 3 2 0.785
625 55 0 5 2 3 2 1.004
626 55 0 6 1 3 2 0.808
627 55 0 7 1 1 0 0.818
628 55 0 8 1 1 0 0.557
629 55 0 9 3 2 1 0.728
630 55 0 10 3 2 1 0.558
631 55 0 11 1 3 2 1.161
632 55 0 12 2 3 2 1.847
633 55 0 13 2 2 1 0.716
634 55 0 14 3 1 0 1.138
635 55 0 15 2 3 2 0.761
636 55 0 16 3 3 2 0.773
637 55 0 17 3 3 2 0.433
638 55 0 18 3 1 0 0.761
639 55 0 19 2 2 1 0.445
640 55 0 20 3 3 2 1.005
641 55 0 21 1 2 1 0.776
642 55 0 22 3 3 2 1.124
643 55 0 23 1 1 0 0.587
644 55 0 24 3 1 0 0.75
645 55 0 25 3 2 1 0.714
646 55 0 26 2 1 0 0.728
647 55 0 27 2 3 2 0.805
648 55 0 28 1 2 1 1.304
649 55 0 29 2 2 1 0.713
650 55 0 30 2 3 2 0.727
651 55 0 31 1 1 0 0.58
652 55 0 32 1 3 2 1.311
653 55 0 33 1 1 0 0.656
654 55 0 34 3 2 1 0.672
655 55 0 35 1 3 0 1.551
656 55 0 36 3 1 0 1.291
657 55 0 37 3 2 1 0.636
658 55 0 38 1 1 0 0.636
659 55 0 39 3 2 1 0.525
660 55 1 40 2 2 1 2.248
661 55 1 41 3 3 2 0.942
662 55 1 42 2 2 1 0.516
663 55 1 43 1 2 1 1.105
664 55 1 44 1 3 2 1.025
665 55 1 45 3 3 2 1.292
666 55 1 46 2 3 2 0.933
667 55 1 47 2 2 1 0.571
668 55 1 48 3 3 2 0.75
669 55 1 49 3 2 1 0.635
670 55 1 50 2 3 2 0.723
671 55 1 51 2 1 0 0.673
672 55 1 52 1 1 0 0.6
673 55 1 53 3 2 1 0.916
674 55 1 54 3 2 1 0.867
675 55 1 55 2 1 0 0.779
676 55 1 56 3 1 0 0.991
677 55 1 57 1 2 1 0.689
678 55 1 58 3 2 1 0.712
679 55 1 59 1 3 2 0.87
680 55 1 60 3 1 0 0.814
681 55 1 61 1 3 2 0.839
682 55 1 62 1 1 0 2.105
683 55 1 63 1 1 0 0.629
684 55 1 64 2 2 1 0.942
685 55 1 65 1 3 2 0.951
686 55 1 66 2 2 1 0.612
687 55 1 67 2 1 0 0.653
688 55 1 68 3 2 1 1.557
689 55 1 69 1 3 2 0.789
690 55 1 70 3 3 2 0.536
691 55 1 71 3 1 0 0.532
692 55 1 72 1 2 1 0.577
693 55 1 73 1 2 1 0.852
694 55 1 74 3 1 0 1.348
695 55 1 75 2 1 0 0.587
696 55 1 76 1 3 2 0.701
697 55 1 77 2 1 0 1.163
698 55 1 78 3 1 0 6.727
699 55 1 79 2 1 0 0.781
700 55 2 80 3 3 2 1.314
701 55 2 81 3 2 1 0.946
702 56 0 0 3 2 1 1.985
703 56 0 1 3 3 2 0.881
704 56 0 2 2 1 0 0.698
705 56 0 3 3 3 2 0.96
706 56 0 4 3 2 1 0.813
707 56 0 5 3 1 0 0.728
708 56 0 6 3 2 1 0.981
709 56 0 7 1 3 2 1.138
710 56 0 8 1 2 1 1.097
711 56 0 9 2 2 0 1.433
712 56 0 10 3 3 2 1.001
713 56 0 11 2 2 0 11.06
714 56 0 12 3 3 2 0.764
715 56 0 13 3 1 2 0.576
716 56 0 14 2 1 0 1.222
717 56 0 15 2 2 1 0.746
718 56 0 16 3 1 1 1.063
719 56 0 17 3 2 1 0.884
720 56 0 18 1 2 1 0.724
721 56 0 19 3 3 2 0.674
722 56 0 20 3 1 0 0.609
723 56 0 21 2 3 2 3.459
724 56 0 22 1 2 1 1.015
725 56 0 23 2 2 1 0.938
726 56 0 24 3 2 1 0.784
727 56 0 25 1 3 2 1.532
728 56 0 26 3 3 0 1.428
729 56 0 27 2 2 1 1.141
730 56 0 28 2 2 1 2.427
731 56 0 29 3 2 1 0.628
732 56 0 30 1 3 2 1.509
733 56 0 31 3 2 2 2.078
734 56 0 32 1 3 2 1.671
735 56 0 33 2 2 1 2.955
736 57 0 0 3 2 1 0.802
737 57 0 1 3 3 2 1.013
738 57 0 2 3 3 2 0.656
739 57 0 3 3 2 1 0.76
740 57 0 4 1 2 1 0.996
741 57 0 5 1 3 2 0.848
742 57 0 6 2 1 0 1.457
743 57 0 7 2 1 0 0.501
744 57 0 8 2 2 1 0.81
745 57 0 9 3 1 0 1.3
746 57 0 10 3 2 1 3.437
747 57 0 11 2 1 0 7.162
748 57 0 12 1 3 2 1.881
749 57 0 13 2 3 2 1.173
750 57 0 14 1 2 1 0.85
751 57 0 15 3 1 0 1.219
752 57 0 16 3 2 1 0.806
753 57 0 17 1 2 1 0.769
754 57 0 18 2 3 2 0.909
755 57 0 19 1 3 2 0.572
756 57 0 20 2 1 0 2.83
757 57 0 21 3 3 2 0.776
758 57 0 22 2 1 1 1.172
759 57 0 23 2 3 2 0.989
760 57 0 24 1 3 2 0.745
761 57 0 25 3 2 1 0.782
762 57 0 26 1 2 1 1.082
763 57 0 27 1 2 1 1.235
764 57 0 28 1 1 0 2.862
765 57 0 29 3 2 2 79.528
766 57 0 30 2 3 2 1.498
767 57 0 31 2 3 2 0.764
768 57 0 32 1 3 2 0.584
769 57 0 33 2 1 2 0.722
770 57 0 34 3 2 1 1.387
771 57 0 35 3 2 1 0.521
772 57 0 36 1 1 0 0.958
773 57 0 37 2 2 1 67.316
774 57 0 38 3 1 2 1.224
775 57 0 39 1 3 2 1.688
776 57 1 40 1 1 0 3.481
777 57 1 41 3 3 2 1.204
778 57 1 42 1 1 2 1.04
779 57 1 43 2 2 1 0.95
780 58 0 0 3 3 2 1.678
781 58 0 1 3 1 0 1.562
782 58 0 2 3 3 2 4.442
783 58 0 3 2 3 2 1.954
784 58 0 4 2 1 0 1.732
785 58 0 5 2 2 1 1.005
786 58 0 6 1 3 2 1.904
787 58 0 7 3 1 0 2.196
788 58 0 8 2 3 2 1.549
789 58 0 9 1 2 1 1.501
790 58 0 10 3 1 0 1.071
791 58 0 11 2 3 2 1.184
792 58 0 12 1 3 2 1.069
793 58 0 13 3 2 1 3.838
794 58 0 14 1 3 2 1.117
795 58 0 15 2 1 0 1.02
796 58 0 16 3 1 0 1.438
797 58 0 17 2 1 0 0.735
798 58 0 18 2 3 2 1.084
799 58 0 19 1 3 0 1.197
800 58 0 20 2 1 0 1.925
801 58 0 21 1 3 2 1.304
802 58 0 22 2 1 0 1.329
803 58 0 23 3 1 0 0.873
804 58 0 24 3 2 1 0.865
805 58 0 25 3 2 1 0.634
806 58 0 26 1 1 0 0.795
807 58 0 27 3 2 1 1.094
808 58 0 28 3 1 0 0.806
809 58 0 29 3 2 1 5.777
810 58 0 30 1 2 1 0.679
811 58 0 31 1 1 0 1.91
812 58 0 32 2 2 1 0.985
813 58 0 33 2 2 1 1.773
814 58 0 34 2 3 0 0.837
815 58 0 35 2 3 2 2.747
816 58 0 36 3 2 1 0.976
817 58 0 37 3 2 1 0.692
818 58 0 38 1 1 0 0.707
819 58 0 39 3 1 0 0.913
820 58 1 40 1 3 2 1.077
821 58 1 41 1 2 1 0.822
822 58 1 42 2 1 0 0.848
823 58 1 43 2 2 1 0.842
824 58 1 44 1 1 0 0.675
825 58 1 45 1 1 0 1.074
826 58 1 46 3 1 0 0.851
827 58 1 47 2 2 1 1.164
828 58 1 48 1 1 0 0.714
829 58 1 49 3 1 0 0.744
830 58 1 50 3 3 2 0.917
831 58 1 51 2 1 0 1.259
832 58 1 52 1 1 0 1.718
833 58 1 53 1 2 1 0.864
834 58 1 54 2 1 0 2.808
835 58 1 55 1 2 1 0.699
836 58 1 56 2 2 1 1.241
837 58 1 57 3 1 0 0.756
838 58 1 58 3 2 1 0.753
839 58 1 59 2 2 1 1.485
840 58 1 60 2 2 1 1.999
841 58 1 61 2 3 2 1.615
842 58 1 62 2 3 0 0.988
843 58 1 63 1 2 1 1.148
844 58 1 64 1 1 0 3.61
845 58 1 65 3 3 2 1.088
846 58 1 66 3 2 1 0.96
847 58 1 67 3 3 2 0.901
848 58 1 68 1 1 0 0.717
849 58 1 69 3 1 0 2.874
850 58 1 70 3 2 1 1.035
851 58 1 71 3 2 1 0.909
852 58 1 72 3 2 1 1.316
853 58 1 73 3 3 2 1.644
854 58 1 74 3 2 1 0.793
855 58 1 75 1 1 0 1.291
856 58 1 76 2 2 1 0.901
857 58 1 77 2 2 1 1.58
858 58 1 78 3 3 2 1.994
859 58 1 79 2 3 0 1.338
860 58 2 80 3 2 1 1.109
861 58 2 81 2 2 1 0.501
862 58 2 82 1 2 1 0.539
863 58 2 83 3 1 0 1.167
864 58 2 84 3 1 0 0.62
865 58 2 85 2 1 0 0.558
866 58 2 86 1 2 1 0.961
867 58 2 87 2 3 2 1.526
868 58 2 88 3 2 1 0.919
869 58 2 89 3 2 1 1.005
870 58 2 90 2 2 1 0.593
871 58 2 91 1 1 0 0.787
872 58 2 92 1 2 1 1.023
873 58 2 93 2 2 1 0.577
874 58 2 94 2 2 1 0.516
875 58 2 95 1 3 0 0.985
876 58 2 96 3 2 1 0.777
877 58 2 97 1 3 2 2.917
878 58 2 98 2 1 0 3.46
879 58 2 99 2 2 1 0.863
880 58 2 100 3 2 1 0.968
881 58 2 101 2 2 1 0.444
882 58 2 102 2 2 1 0.484
883 58 2 103 1 3 0 1.099
884 58 2 104 3 1 0 1.287
885 58 2 105 3 3 2 0.784
886 58 2 106 3 3 2 0.795
887 58 2 107 1 3 2 0.534
888 58 2 108 1 1 2 0.539
889 58 2 109 2 2 1 0.955
890 58 2 110 3 1 0 1.024
891 58 2 111 2 3 2 1.218
892 58 2 112 2 1 0 2.142
893 58 2 113 3 1 0 2.392
894 58 2 114 1 3 2 1.051
895 58 2 115 1 1 0 0.749
896 58 2 116 2 1 0 0.666
897 58 2 117 2 3 0 0.489
898 58 2 118 2 3 0 0.908
899 58 2 119 2 1 0 1.006
900 58 3 120 2 2 1 1.052
901 58 3 121 1 3 2 6.43
902 58 3 122 2 1 0 2.495
903 58 3 123 1 1 0 0.542
904 58 3 124 1 2 1 0.818
905 58 3 125 1 3 2 5.388
906 58 3 126 3 3 2 0.563
907 58 3 127 2 1 0 1.174
908 58 3 128 2 2 1 0.852
909 58 3 129 1 1 0 1.613
910 58 3 130 3 1 0 0.554
911 58 3 131 1 3 2 1.29
912 58 3 132 3 3 2 0.595
913 58 3 133 1 2 1 0.997
914 58 3 134 3 3 2 1.161
915 58 3 135 1 3 2 1.271
916 58 3 136 2 1 0 1.041
917 58 3 137 3 2 1 0.931
918 58 3 138 3 2 1 0.842
919 58 3 139 3 3 2 1.347
920 58 3 140 3 2 1 0.922
921 58 3 141 3 2 1 0.833
922 58 3 142 2 3 2 1.162
923 58 3 143 2 2 1 0.68
924 58 3 144 3 1 0 0.935
925 58 3 145 1 1 0 0.686
926 58 3 146 1 2 1 0.829
927 58 3 147 2 2 1 0.695
928 58 3 148 3 2 1 0.678
929 58 3 149 2 1 0 0.709
930 58 3 150 2 1 0 2.147
931 58 3 151 1 1 0 0.573
932 58 3 152 1 3 2 0.833
933 58 3 153 2 1 0 1.035
934 58 3 154 3 1 0 0.974
935 58 3 155 1 3 2 1.394
936 58 3 156 2 3 2 1.048
937 58 3 157 3 2 1 0.842
938 58 3 158 2 3 0 2.771
939 58 3 159 3 1 0 1.091
940 58 4 160 2 1 0 1.67
941 58 4 161 2 3 2 1.154
942 58 4 162 2 2 1 0.752
943 58 4 163 3 2 1 1.165
944 58 4 164 3 1 0 1.035
945 58 4 165 2 1 0 1.373
946 58 4 166 3 2 1 0.899
947 58 4 167 1 1 0 0.683
948 58 4 168 1 3 2 1.114
949 58 4 169 2 1 0 1.05
950 58 4 170 3 3 2 1.115
951 58 4 171 1 3 2 0.683
952 58 4 172 1 3 2 0.57
953 58 4 173 2 2 1 0.667
954 58 4 174 2 2 1 0.395
955 58 4 175 3 1 0 0.884
956 58 4 176 2 2 1 1.5
957 58 4 177 1 3 0 2.286
958 58 4 178 1 3 0 3.183
959 58 4 179 2 1 0 1.248
960 58 4 180 2 2 1 1.195
961 58 4 181 1 1 0 1.848
962 58 4 182 2 2 1 0.765
963 58 4 183 2 3 2 0.825
964 58 4 184 1 1 0 2.178
965 58 4 185 1 2 1 0.859
966 58 4 186 2 3 2 0.98
967 58 4 187 2 2 1 0.776
968 58 4 188 1 1 0 0.74
969 58 4 189 1 1 0 0.705
970 58 4 190 2 1 0 1.247
971 58 4 191 2 1 0 1.881
972 58 4 192 2 2 1 0.973
973 58 4 193 2 2 1 1.266
974 58 4 194 1 2 1 2.043
975 58 4 195 2 1 2 1.673
976 58 4 196 1 3 2 4.064
977 58 4 197 3 1 0 0.934
978 58 4 198 3 3 2 1.02
979 58 4 199 2 1 0 0.847
980 58 5 200 3 1 0 1.206
981 58 5 201 1 2 1 0.846
982 58 5 202 2 1 0 0.903
983 58 5 203 2 3 2 1.198
984 58 5 204 2 3 2 1.05
985 58 5 205 3 3 2 0.636
986 58 5 206 3 3 2 0.476
987 58 5 207 2 3 2 0.499
988 58 5 208 2 2 1 0.872
989 58 5 209 2 1 0 0.833
990 58 5 210 3 2 1 0.794
991 58 5 211 2 1 0 8.214
992 58 5 212 2 3 2 1.159
993 58 5 213 3 3 2 0.693
994 58 5 214 3 2 1 0.595
995 58 5 215 2 2 1 0.773
996 58 5 216 3 1 0 0.753
997 58 5 217 1 2 1 1.197
998 58 5 218 2 2 1 0.762
999 58 5 219 3 2 1 1.302
1000 58 5 220 3 2 1 0.495
1001 58 5 221 1 2 1 0.997
1002 58 5 222 1 3 2 1.079
1003 58 5 223 2 1 0 1.384
1004 58 5 224 1 1 0 0.813
1005 58 5 225 3 2 1 0.791
1006 58 5 226 3 1 0 1.282
1007 58 5 227 2 2 1 1.58
1008 58 5 228 3 3 2 1.114
1009 58 5 229 3 3 2 1.033
1010 58 5 230 1 3 2 0.46
1011 58 5 231 2 1 2 0.659
1012 58 5 232 3 3 2 0.943
1013 58 5 233 3 3 2 0.738
1014 58 5 234 1 1 0 1.118
1015 58 5 235 1 1 0 0.91
1016 58 5 236 3 3 2 1.381
1017 58 5 237 1 3 0 1.963
1018 58 5 238 2 3 2 2.392
1019 58 5 239 3 1 0 1.29
1020 58 6 240 2 3 2 1.177
1021 58 6 241 1 2 1 0.918
1022 58 6 242 2 2 1 0.557
1023 58 6 243 3 1 0 0.848
1024 58 6 244 3 3 2 1.194
1025 58 6 245 1 2 1 0.999
1026 58 6 246 2 1 0 0.811
1027 58 6 247 2 1 0 0.853
1028 58 6 248 3 3 2 0.894
1029 58 6 249 3 2 1 0.709
1030 58 6 250 1 3 2 1.203
1031 58 6 251 3 1 0 0.864
1032 58 6 252 3 2 1 0.841
1033 58 6 253 3 3 2 1.314
1034 58 6 254 3 1 0 0.891
1035 58 6 255 2 2 1 0.77
1036 58 6 256 1 1 0 0.766
1037 58 6 257 1 1 0 1.083
1038 58 6 258 3 2 1 0.78
1039 58 6 259 2 2 1 0.551
1040 58 6 260 2 3 2 1.003
1041 58 6 261 2 2 1 0.83
1042 58 6 262 3 3 2 0.872
1043 58 6 263 1 3 2 1.872
1044 58 6 264 1 1 0 0.741
1045 58 6 265 3 2 1 0.77
1046 58 6 266 3 3 2 1.885
1047 58 6 267 1 2 1 0.705
1048 58 6 268 1 1 0 1.6
1049 58 6 269 2 1 0 0.606
1050 58 6 270 3 2 1 0.672
1051 58 6 271 3 1 0 0.863
1052 58 6 272 2 2 1 0.679
1053 58 6 273 1 3 2 1.462
1054 58 6 274 1 1 0 0.938
1055 58 6 275 2 1 0 1.663
1056 58 6 276 2 1 0 0.859
1057 58 6 277 2 1 0 0.5
1058 58 6 278 3 3 2 1.066
1059 58 6 279 2 3 2 0.635
1060 58 7 280 2 1 0 1.144
1061 58 7 281 2 3 2 1.462
1062 58 7 282 2 3 2 0.81
1063 58 7 283 2 1 0 0.819
1064 58 7 284 2 2 1 0.813
1065 58 7 285 1 1 0 0.76
1066 58 7 286 2 3 2 1.46
1067 58 7 287 2 3 2 0.887
1068 58 7 288 2 3 2 0.575
1069 58 7 289 3 2 1 0.706
1070 58 7 290 3 2 1 0.624
1071 58 7 291 2 2 1 0.449
1072 58 7 292 1 1 0 1.048
1073 58 7 293 2 2 1 0.779
1074 58 7 294 3 1 0 1.062
1075 58 7 295 2 3 2 1.048
1076 58 7 296 3 3 2 2.298
1077 58 7 297 1 1 0 1.055
1078 58 7 298 2 2 1 0.801
1079 58 7 299 3 3 2 0.876
1080 58 7 300 1 1 0 0.708
1081 58 7 301 3 1 0 1.602
1082 58 7 302 3 2 1 0.912
1083 58 7 303 1 1 0 3.511
1084 58 7 304 2 2 1 0.689
1085 58 7 305 3 3 2 0.927
1086 58 7 306 3 1 0 3.83
1087 58 7 307 3 3 2 0.931
1088 58 7 308 2 2 1 0.634
1089 58 7 309 1 3 2 1.243
1090 58 7 310 3 1 0 0.806
1091 58 7 311 1 1 0 0.624
1092 58 7 312 3 1 0 0.593
1093 58 7 313 2 1 0 0.5
1094 58 7 314 1 3 0 0.473
1095 58 7 315 1 3 2 0.956
1096 58 7 316 2 3 2 1.105
1097 58 7 317 3 2 1 0.737
1098 58 7 318 3 3 2 1.198
1099 58 7 319 1 3 2 1.387
1100 59 0 0 1 3 2 1.529
1101 59 0 1 2 1 0 1.761
1102 59 0 2 2 2 1 1.05
1103 59 0 3 3 1 0 1.748
1104 59 0 4 3 3 0 1.557
1105 59 0 5 3 1 1 1.064
1106 59 0 6 2 1 1 2.757
1107 59 0 7 2 1 0 1.966
1108 59 0 8 3 3 2 1.381
1109 59 0 9 3 3 2 0.755
1110 59 0 10 3 1 0 1.551
1111 59 0 11 1 1 1 0.935
1112 59 0 12 1 2 1 1.033
1113 59 0 13 2 2 0 2.02
1114 59 0 14 1 2 0 2.575
1115 59 0 15 3 2 1 3.43
1116 59 0 16 3 2 1 2.651
1117 59 0 17 2 1 0 0.771
1118 59 0 18 3 3 2 0.935
1119 59 0 19 1 1 0 0.965
1120 59 0 20 2 2 1 0.803
1121 59 0 21 2 1 0 0.757
1122 59 0 22 1 3 2 0.625
1123 59 0 23 2 2 1 0.706
1124 59 0 24 3 1 0 1.152
1125 59 0 25 3 3 2 0.559
1126 59 0 26 3 1 1 0.81
1127 59 0 27 1 2 1 1.393
1128 59 0 28 2 3 0 1.414
1129 59 0 29 1 1 0 2.903
1130 59 0 30 3 1 2 2.55
1131 59 0 31 2 2 1 0.846
1132 59 0 32 3 3 2 0.927
1133 59 0 33 3 2 1 2.006
1134 59 0 34 1 1 0 0.749
1135 59 0 35 2 2 1 1.314
1136 59 0 36 2 2 1 1.459
1137 59 0 37 1 3 2 0.766
1138 59 0 38 3 3 2 0.619
1139 59 0 39 3 3 2 0.54
1140 59 1 40 3 1 0 0.944
1141 59 1 41 1 3 2 0.646
1142 59 1 42 2 2 1 0.679
1143 59 1 43 1 3 2 0.67
1144 59 1 44 2 3 2 0.557
1145 59 1 45 3 2 1 0.865
1146 59 1 46 1 3 0 2.417
1147 59 1 47 2 2 1 0.83
1148 59 1 48 1 1 0 0.887
1149 59 1 49 3 3 2 0.854
1150 59 1 50 2 3 2 1.078
1151 59 1 51 2 1 0 1.983
1152 59 1 52 2 3 2 0.944
1153 59 1 53 1 1 1 0.909
1154 59 1 54 1 1 0 1.432
1155 59 1 55 2 2 1 0.908
1156 59 1 56 1 1 0 5.571
1157 59 1 57 2 3 2 0.707
1158 59 1 58 3 2 1 1.281
1159 59 1 59 2 2 1 0.738
1160 59 1 60 3 1 0 1.102
1161 59 1 61 3 3 2 0.638
1162 59 1 62 1 1 0 1.502
1163 59 1 63 3 3 2 0.791
1164 59 1 64 3 1 0 1.09
1165 59 1 65 1 1 0 1.467
1166 59 1 66 2 2 1 0.805
1167 59 1 67 3 3 2 0.616
1168 59 1 68 1 2 1 1.882
1169 59 1 69 3 1 2 1.677
1170 59 1 70 2 2 1 3.669
1171 59 1 71 2 2 1 0.632
1172 59 1 72 2 2 1 1.969
1173 59 1 73 3 3 2 3.85
1174 59 1 74 1 3 2 1.072
1175 59 1 75 2 2 1 0.745
1176 59 1 76 1 1 0 0.957
1177 59 1 77 3 3 2 0.779
1178 59 1 78 2 1 1 1.166
1179 59 1 79 3 1 0 1.344
1180 59 2 80 1 2 1 1.145
1181 59 2 81 3 1 0 1
1182 59 2 82 2 1 0 1.395
1183 59 2 83 3 3 2 0.728
1184 59 2 84 3 1 0 0.838
1185 59 2 85 1 1 0 0.727
1186 59 2 86 2 1 0 0.925
1187 59 2 87 2 1 0 0.547
1188 59 2 88 3 1 0 1.607
1189 59 2 89 2 1 1 1.877
1190 59 2 90 2 2 1 0.597
1191 59 2 91 1 2 1 0.623
1192 59 2 92 1 2 1 0.456
1193 59 2 93 2 1 0 0.783
1194 59 2 94 1 3 2 1.003
1195 59 2 95 1 2 1 0.606
1196 59 2 96 1 2 1 0.568
1197 59 2 97 1 2 1 0.444
1198 59 2 98 1 3 2 1.403
1199 59 2 99 2 1 0 0.584
1200 59 2 100 1 3 2 0.715
1201 59 2 101 3 3 2 0.561
1202 59 2 102 1 3 2 0.637
1203 59 2 103 2 1 0 1.245
1204 59 2 104 2 1 0 0.607
1205 59 2 105 1 1 0 0.593
1206 59 2 106 1 1 0 0.451
1207 59 2 107 1 3 0 0.443
1208 59 2 108 1 1 2 1.223
1209 59 2 109 2 1 0 0.734
1210 59 2 110 3 2 1 1.131
1211 59 2 111 1 2 1 0.826
1212 59 2 112 3 1 0 1.124
1213 59 2 113 1 2 1 0.595
1214 59 2 114 2 2 1 1.862
1215 59 2 115 3 2 1 0.578
1216 59 2 116 1 1 0 0.589
1217 59 2 117 3 2 1 0.759
1218 59 2 118 2 3 2 2.083
1219 59 2 119 1 2 1 0.864
1220 59 3 120 3 1 0 3.008
1221 59 3 121 3 1 0 0.772
1222 59 3 122 1 3 2 1.264
1223 59 3 123 3 1 0 2.699
1224 59 3 124 1 1 0 0.793
1225 59 3 125 2 2 1 0.541
1226 59 3 126 2 3 2 3.008
1227 59 3 127 3 1 0 1.476
1228 59 3 128 3 1 0 0.759
1229 59 3 129 2 2 1 0.715
1230 59 3 130 3 1 0 0.889
1231 59 3 131 2 1 0 0.529
1232 59 3 132 3 3 2 0.685
1233 59 3 133 2 1 0 1.996
1234 59 3 134 2 2 1 0.764
1235 59 3 135 1 3 2 1.296
1236 59 3 136 2 3 2 0.705
1237 59 3 137 1 1 0 0.936
1238 59 3 138 1 2 1 0.566
1239 59 3 139 3 1 0 1.626
1240 59 3 140 3 3 2 0.743
1241 59 3 141 2 1 0 1.284
1242 59 3 142 1 2 1 0.534
1243 59 3 143 2 1 0 0.722
1244 59 3 144 1 1 0 0.784
1245 59 3 145 1 1 0 0.532
1246 59 3 146 3 1 0 0.576
1247 59 3 147 1 2 1 0.779
1248 59 3 148 3 2 1 0.607
1249 59 3 149 1 1 0 1.312
1250 59 3 150 3 1 0 1.313
1251 59 3 151 2 2 1 0.706
1252 59 3 152 3 2 1 0.472
1253 59 3 153 3 2 1 0.374
1254 59 3 154 1 1 0 0.585
1255 59 3 155 2 2 1 0.956
1256 59 3 156 1 1 0 0.553
1257 59 3 157 1 2 1 0.653
1258 59 3 158 2 3 2 0.869
1259 59 3 159 2 2 1 0.757
1260 59 4 160 3 3 2 0.832
1261 59 4 161 2 3 2 0.522
1262 59 4 162 3 3 2 0.542
1263 59 4 163 1 3 2 0.562
1264 59 4 164 2 3 2 0.582
1265 59 4 165 1 1 0 1.041
1266 59 4 166 1 3 2 0.931
1267 59 4 167 3 3 2 0.633
1268 59 4 168 3 2 1 0.618
1269 59 4 169 1 2 1 0.844
1270 59 4 170 2 2 1 1.485
1271 59 4 171 2 3 0 0.679
1272 59 4 172 1 2 1 0.778
1273 59 4 173 3 2 1 0.71
1274 59 4 174 1 1 0 1.132
1275 59 4 175 2 3 2 1.259
1276 59 4 176 3 1 0 0.934
1277 59 4 177 2 2 1 0.627
1278 59 4 178 1 3 2 0.797
1279 59 4 179 2 2 1 1.143
1280 59 4 180 1 1 0 2.086
1281 59 4 181 1 1 0 1.322
1282 59 4 182 3 3 2 1.083
1283 59 4 183 2 3 2 0.795
1284 59 4 184 3 3 2 0.838
1285 59 4 185 1 1 0 1.751
1286 59 4 186 1 2 1 0.712
1287 59 4 187 1 2 1 0.862
1288 59 4 188 1 1 0 1.215
1289 59 4 189 3 3 2 0.675
1290 59 4 190 3 2 1 0.858
1291 59 4 191 1 1 0 2.707
1292 59 4 192 1 3 2 0.921
1293 59 4 193 2 1 0 1.416
1294 59 4 194 2 2 1 0.612
1295 59 4 195 2 1 0 3.038
1296 59 4 196 2 2 2 1.672
1297 59 4 197 2 1 0 2.391
1298 59 4 198 1 2 1 5.754
1299 59 4 199 1 3 2 1.883
1300 59 5 200 1 1 0 2.305
1301 59 5 201 1 2 1 1.59
1302 59 5 202 3 2 1 0.845
1303 59 5 203 1 1 0 1.897
1304 59 5 204 2 2 1 0.788
1305 59 5 205 1 3 2 0.871
1306 59 5 206 1 1 0 1.151
1307 59 5 207 2 3 2 0.933
1308 59 5 208 3 1 0 1.003
1309 59 5 209 1 3 2 0.975
1310 59 5 210 3 3 2 0.651
1311 59 5 211 2 2 1 0.723
1312 59 5 212 1 1 0 1.112
1313 59 5 213 1 1 0 0.824
1314 59 5 214 1 2 1 0.666
1315 59 5 215 3 3 2 0.929
1316 59 5 216 2 2 1 0.735
1317 59 5 217 3 1 0 1.244
1318 59 5 218 1 2 1 0.834
1319 59 5 219 3 1 0 1.74
1320 59 5 220 3 1 0 0.837
1321 59 5 221 1 2 1 1.542
1322 59 5 222 3 3 2 1.207
1323 59 5 223 1 3 2 0.811
1324 59 5 224 3 2 1 0.765
1325 59 5 225 2 1 0 2.497
1326 59 5 226 1 3 2 1.127
1327 59 5 227 1 1 0 0.942
1328 59 5 228 2 2 1 1.18
1329 59 5 229 1 1 0 1.497
1330 59 5 230 3 3 2 2.995
1331 59 5 231 2 2 1 0.719
1332 59 5 232 1 3 2 0.925
1333 59 5 233 1 1 0 3.275
1334 59 5 234 1 3 2 2.013
1335 59 5 235 2 2 1 0.716
1336 59 5 236 2 3 2 2.858
1337 59 5 237 2 1 0 0.866
1338 59 5 238 1 1 0 7.067
1339 59 5 239 3 2 1 0.766
1340 59 6 240 3 3 2 0.859
1341 59 6 241 3 2 1 1.5
1342 59 6 242 3 2 1 0.613
1343 59 6 243 3 3 2 0.775
1344 59 6 244 1 2 0 0.643
1345 59 6 245 1 3 2 0.911
1346 59 6 246 3 2 1 0.662
1347 59 6 247 2 2 1 0.718
1348 59 6 248 1 2 1 0.604
1349 59 6 249 3 2 1 0.478
1350 59 6 250 3 2 1 0.396
1351 59 6 251 2 1 0 0.646
1352 59 6 252 3 2 1 0.718
1353 59 6 253 2 3 0 0.58
1354 59 6 254 2 2 1 1.458
1355 59 6 255 2 3 2 1.309
1356 59 6 256 3 2 1 0.574
1357 59 6 257 2 2 1 0.665
1358 59 6 258 1 1 0 0.841
1359 59 6 259 2 2 1 0.762
1360 59 6 260 1 2 1 0.638
1361 59 6 261 3 3 2 1.983
1362 59 6 262 1 2 1 3.271
1363 59 6 263 3 2 1 0.762
1364 59 6 264 3 2 1 1.038
1365 59 6 265 3 1 0 0.912
1366 59 6 266 2 1 0 0.647
1367 59 6 267 2 2 1 0.668
1368 59 6 268 2 3 2 0.98
1369 59 6 269 2 2 1 0.736
1370 59 6 270 1 1 0 1.077
1371 59 6 271 2 3 0 1.366
1372 59 6 272 2 2 1 0.833
1373 59 6 273 3 3 2 1.066
1374 59 6 274 3 2 1 0.588
1375 59 6 275 2 3 2 0.854
1376 59 6 276 2 2 1 0.927
1377 59 6 277 1 2 1 1.773
1378 59 6 278 3 3 2 1.013
1379 59 6 279 3 3 2 0.505
1380 59 7 280 3 1 2 0.919
1381 59 7 281 2 2 1 0.569
1382 59 7 282 1 1 0 0.741
1383 59 7 283 3 1 1 0.53
1384 59 7 284 1 1 2 2.434
1385 59 7 285 3 1 2 2.367
1386 59 7 286 2 3 2 1.229
1387 59 7 287 3 3 2 0.897
1388 59 7 288 3 2 1 0.688
1389 59 7 289 1 1 0 1.007
1390 59 7 290 3 2 1 0.755
1391 59 7 291 3 3 2 1.471
1392 59 7 292 2 3 1 0.882
1393 59 7 293 2 1 2 1.03
1394 59 7 294 2 1 1 2.076
1395 59 7 295 3 1 2 3.959
1396 59 7 296 1 3 2 0.725
1397 59 7 297 3 1 2 0.938
1398 59 7 298 1 3 2 2.748
1399 59 7 299 3 2 1 0.937
1400 59 7 300 2 2 1 0.607
1401 59 7 301 3 3 2 3.153
1402 59 7 302 1 3 0 0.951
1403 59 7 303 3 3 0 1.521
1404 59 7 304 3 2 1 1.677
1405 59 7 305 1 3 2 1.305
1406 59 7 306 2 3 2 3.602
1407 59 7 307 3 2 1 0.664
1408 59 7 308 3 2 1 0.464
1409 59 7 309 3 3 0 0.647
1410 59 7 310 1 1 1 2.723
1411 59 7 311 3 2 1 0.677
1412 59 7 312 3 3 2 0.628
1413 59 7 313 1 3 1 0.725
1414 59 7 314 1 2 1 1.551
1415 59 7 315 1 2 0 3.055
1416 59 7 316 2 3 2 2.245
1417 59 7 317 2 3 1 2.932
1418 59 7 318 2 3 2 0.958
1419 59 7 319 3 1 2 0.843
1420 60 0 0 1 1 1 1.359
1421 60 0 1 2 1 2 1.585
1422 60 0 2 2 2 1 0.972
1423 60 0 3 1 3 2 0.785
1424 60 0 4 3 2 1 1.004
1425 60 0 5 3 3 2 0.784
1426 60 0 6 1 3 2 1.499
1427 60 0 7 3 2 1 0.653
1428 60 0 8 3 3 2 0.861
1429 60 0 9 3 2 1 0.598
1430 60 0 10 2 1 0 0.889
1431 60 0 11 2 3 2 1.392
1432 60 0 12 3 2 1 0.582
1433 60 0 13 3 2 1 1.049
1434 60 0 14 2 3 2 0.971
1435 60 0 15 2 1 0 0.847
1436 60 0 16 3 1 0 0.809
1437 60 0 17 3 1 0 0.947
1438 60 0 18 3 3 1 1.449
1439 60 0 19 1 1 0 0.793
1440 60 0 20 2 3 2 3.524
1441 60 0 21 2 1 0 0.733
1442 60 0 22 1 1 0 0.554
1443 60 0 23 2 2 1 0.558
1444 60 0 24 1 2 1 0.609
1445 60 0 25 3 2 1 0.547
1446 60 0 26 2 3 2 0.823
1447 60 0 27 2 1 0 0.705
1448 60 0 28 2 1 0 1.919
1449 60 0 29 1 2 1 0.721
1450 60 0 30 3 1 2 1.135
1451 60 0 31 3 3 2 0.778
1452 60 0 32 3 2 1 0.629
1453 60 0 33 3 1 0 0.534
1454 60 0 34 1 2 2 0.747
1455 60 0 35 1 1 0 1.396
1456 60 0 36 1 3 2 0.809
1457 60 0 37 2 1 0 1.427
1458 60 0 38 3 1 0 1.554
1459 60 0 39 2 1 0 1.234
1460 60 1 40 1 1 2 1.994
1461 60 1 41 2 1 0 0.742
1462 60 1 42 1 2 1 0.626
1463 60 1 43 3 2 1 0.883
1464 60 1 44 2 3 2 0.811
1465 60 1 45 1 2 1 0.965
1466 60 1 46 1 2 1 0.57
1467 60 1 47 3 2 1 1.501
1468 60 1 48 1 1 0 0.719
1469 60 1 49 3 1 0 1.037
1470 60 1 50 3 1 0 0.879
1471 60 1 51 3 1 0 0.775
1472 60 1 52 3 2 1 0.723
1473 60 1 53 3 3 2 0.736
1474 60 1 54 1 3 2 0.829
1475 60 1 55 1 2 1 0.599
1476 60 1 56 2 3 2 0.905
1477 60 1 57 1 2 1 0.608
1478 60 1 58 1 3 2 0.609
1479 60 1 59 3 1 2 1.715
1480 60 1 60 3 2 1 0.628
1481 60 1 61 2 1 2 1.941
1482 60 1 62 2 3 2 0.947
1483 60 1 63 2 2 1 0.664
1484 60 1 64 2 1 0 1.192
1485 60 1 65 3 3 2 0.965
1486 60 1 66 2 3 2 1.177
1487 60 1 67 3 3 2 1.255
1488 60 1 68 3 2 1 0.561
1489 60 1 69 1 1 0 0.725
1490 60 1 70 1 3 2 1.042
1491 60 1 71 1 1 0 0.804
1492 60 1 72 2 1 0 0.975
1493 60 1 73 3 2 1 0.668
1494 60 1 74 1 2 1 0.508
1495 60 1 75 2 1 0 0.689
1496 60 1 76 2 1 0 1.376
1497 60 1 77 3 1 2 2.358
1498 60 1 78 3 2 1 0.533
1499 60 1 79 2 2 1 1.337
1500 60 2 80 3 2 1 1.538
1501 60 2 81 2 1 0 1.473
1502 60 2 82 3 3 2 0.868
1503 60 2 83 2 2 1 0.604
1504 60 2 84 2 1 0 1.278
1505 60 2 85 3 2 1 0.679
1506 60 2 86 1 3 2 0.919
1507 60 2 87 3 2 1 0.653
1508 60 2 88 2 2 1 0.525
1509 60 2 89 2 3 2 0.911
1510 60 2 90 2 2 1 0.774
1511 60 2 91 2 2 1 0.482
1512 60 2 92 2 1 0 0.872
1513 60 2 93 3 2 1 0.944
1514 60 2 94 3 2 1 0.582
1515 60 2 95 2 3 2 1.096
1516 60 2 96 3 3 2 0.713
1517 60 2 97 2 1 0 0.775
1518 60 2 98 1 1 0 1.875
1519 60 2 99 3 3 2 0.919
1520 60 2 100 1 2 1 0.654
1521 60 2 101 1 3 2 0.99
1522 60 2 102 2 1 0 0.866
1523 60 2 103 3 3 2 0.794
1524 60 2 104 3 3 2 0.629
1525 60 2 105 3 2 1 0.598
1526 60 2 106 1 3 2 1.048
1527 60 2 107 1 2 1 0.587
1528 60 2 108 1 1 0 0.832
1529 60 2 109 1 2 1 0.698
1530 60 2 110 3 3 2 0.728
1531 60 2 111 1 3 2 0.982
1532 60 2 112 1 1 0 1.354
1533 60 2 113 1 1 0 0.753
1534 60 2 114 2 1 0 1.022
1535 60 2 115 1 1 0 0.801
1536 60 2 116 2 3 2 2.652
1537 60 2 117 1 2 1 0.964
1538 60 2 118 2 3 0 6.522
1539 60 2 119 1 2 1 0.611
1540 60 3 120 2 1 0 1.018
1541 60 3 121 2 1 0 1.085
1542 60 3 122 3 1 0 1.262
1543 60 3 123 1 3 2 0.761
1544 60 3 124 2 2 1 0.597
1545 60 3 125 2 3 2 1.447
1546 60 3 126 1 1 0 0.987
1547 60 3 127 1 2 1 0.624
1548 60 3 128 3 2 2 0.833
1549 60 3 129 1 3 2 0.806
1550 60 3 130 2 3 2 0.945
1551 60 3 131 3 2 1 0.679
1552 60 3 132 2 3 2 1.046
1553 60 3 133 1 3 0 1.145
1554 60 3 134 1 3 2 0.643
1555 60 3 135 2 2 1 0.979
1556 60 3 136 2 2 1 0.6
1557 60 3 137 3 2 1 0.954
1558 60 3 138 2 1 0 1.343
1559 60 3 139 3 3 2 1.031
1560 60 3 140 3 1 0 0.986
1561 60 3 141 1 2 1 1.486
1562 60 3 142 2 1 0 4.592
1563 60 3 143 3 1 0 0.755
1564 60 3 144 1 1 0 0.656
1565 60 3 145 1 2 1 0.687
1566 60 3 146 2 1 0 1.678
1567 60 3 147 3 1 0 0.682
1568 60 3 148 2 3 2 0.905
1569 60 3 149 3 3 2 0.672
1570 60 3 150 2 3 2 2.271
1571 60 3 151 3 3 2 0.741
1572 60 3 152 2 1 0 0.85
1573 60 3 153 3 1 0 0.667
1574 60 3 154 2 1 0 0.683
1575 60 3 155 1 1 0 0.602
1576 60 3 156 1 3 2 0.956
1577 60 3 157 2 3 2 0.848
1578 60 3 158 1 1 0 1.53
1579 60 3 159 2 1 0 0.954
1580 60 4 160 2 3 2 1.444
1581 60 4 161 2 3 2 0.936
1582 60 4 162 1 2 1 5.486
1583 60 4 163 2 3 2 0.784
1584 60 4 164 3 3 2 0.587
1585 60 4 165 2 2 1 1.197
1586 60 4 166 1 1 0 1.066
1587 60 4 167 2 2 1 1.068
1588 60 4 168 3 3 2 0.685
1589 60 4 169 1 2 1 0.7
1590 60 4 170 2 3 2 0.905
1591 60 4 171 3 3 2 1.168
1592 60 4 172 2 3 2 0.606
1593 60 4 173 2 2 1 0.72
1594 60 4 174 3 2 1 1.309
1595 60 4 175 1 2 1 0.518
1596 60 4 176 2 2 1 0.523
1597 60 4 177 1 1 0 1.28
1598 60 4 178 3 2 1 1.065
1599 60 4 179 3 1 0 4.154
1600 60 4 180 2 2 1 0.861
1601 60 4 181 1 1 0 1.046
1602 60 4 182 2 1 0 1.032
1603 60 4 183 1 1 0 0.635
1604 60 4 184 3 2 1 1.291
1605 60 4 185 2 2 1 0.804
1606 60 4 186 3 3 2 0.831
1607 60 4 187 3 1 0 0.68
1608 60 4 188 2 3 0 0.679
1609 60 4 189 2 1 0 0.818
1610 60 4 190 3 2 1 0.892
1611 60 4 191 3 3 2 1.14
1612 60 4 192 1 2 1 0.658
1613 60 4 193 1 1 0 0.786
1614 60 4 194 3 3 2 4.013
1615 60 4 195 2 1 0 0.661
1616 60 4 196 1 2 1 1.205
1617 60 4 197 2 3 2 2.337
1618 60 4 198 1 3 2 1.557
1619 60 4 199 3 1 0 0.692
1620 60 5 200 3 3 2 0.997
1621 60 5 201 2 3 2 0.729
1622 60 5 202 1 2 1 0.726
1623 60 5 203 3 1 0 0.644
1624 60 5 204 1 1 0 0.756
1625 60 5 205 1 2 1 0.592
1626 60 5 206 1 1 2 0.822
1627 60 5 207 1 2 1 1.068
1628 60 5 208 2 3 2 0.781
1629 60 5 209 2 3 2 0.761
1630 60 5 210 1 1 0 0.821
1631 60 5 211 3 3 2 0.799
1632 60 5 212 3 1 0 1.306
1633 60 5 213 2 1 0 1.442
1634 60 5 214 1 2 1 0.678
1635 60 5 215 2 3 2 0.87
1636 60 5 216 1 1 0 1.166
1637 60 5 217 3 1 0 0.987
1638 60 5 218 1 1 0 0.511
1639 60 5 219 3 2 1 0.516
1640 60 5 220 2 1 0 0.569
1641 60 5 221 1 3 2 0.7
1642 60 5 222 1 2 1 0.843
1643 60 5 223 1 1 0 0.644
1644 60 5 224 2 2 1 0.644
1645 60 5 225 1 2 1 0.661
1646 60 5 226 1 1 0 0.581
1647 60 5 227 1 1 0 0.423
1648 60 5 228 1 1 0 0.448
1649 60 5 229 3 2 1 0.583
1650 60 5 230 3 1 0 0.697
1651 60 5 231 2 3 2 0.696
1652 60 5 232 1 1 0 0.55
1653 60 5 233 1 2 1 0.49
1654 60 5 234 1 3 2 0.768
1655 60 5 235 2 1 0 0.811
1656 60 5 236 3 2 1 0.678
1657 60 5 237 3 3 2 0.773
1658 60 5 238 1 3 2 0.689
1659 60 5 239 1 2 1 0.628
1660 60 6 240 3 1 0 3.193
1661 60 6 241 3 3 2 0.814
1662 60 6 242 2 2 1 0.536
1663 60 6 243 3 2 1 0.605
1664 60 6 244 2 2 1 0.494
1665 60 6 245 3 3 0 0.852
1666 60 6 246 2 1 0 0.649
1667 60 6 247 2 2 1 0.553
1668 60 6 248 2 3 1 0.525
1669 60 6 249 1 3 2 0.749
1670 60 6 250 1 1 0 1.018
1671 60 6 251 3 1 0 0.925
1672 60 6 252 2 2 1 0.993
1673 60 6 253 1 3 2 0.773
1674 60 6 254 1 3 2 0.673
1675 60 6 255 1 1 0 0.736
1676 60 6 256 3 1 0 0.589
1677 60 6 257 1 1 0 0.576
1678 60 6 258 3 1 0 0.627
1679 60 6 259 1 1 0 0.532
1680 60 6 260 3 1 0 0.601
1681 60 6 261 1 3 2 0.811
1682 60 6 262 3 1 0 0.709
1683 60 6 263 1 1 0 0.9
1684 60 6 264 1 1 0 0.571
1685 60 6 265 2 1 0 1.47
1686 60 6 266 3 2 1 0.753
1687 60 6 267 1 3 2 0.669
1688 60 6 268 3 1 0 0.893
1689 60 6 269 2 2 1 0.904
1690 60 6 270 1 3 2 0.591
1691 60 6 271 3 3 2 1.248
1692 60 6 272 2 2 1 0.555
1693 60 6 273 3 1 0 3.166
1694 60 6 274 3 3 2 0.772
1695 60 6 275 2 1 0 0.912
1696 60 6 276 2 2 1 0.615
1697 60 6 277 2 2 1 0.521
1698 60 6 278 2 2 1 0.445
1699 60 6 279 3 3 2 0.692
1700 60 7 280 1 1 0 0.742
1701 60 7 281 3 1 0 0.883
1702 60 7 282 3 2 1 0.683
1703 60 7 283 3 1 0 0.827
1704 60 7 284 1 2 1 0.996
1705 60 7 285 3 2 1 0.855
1706 60 7 286 2 1 0 0.688
1707 60 7 287 1 2 1 1.055
1708 60 7 288 2 1 0 0.721
1709 60 7 289 2 1 0 0.703
1710 60 7 290 3 2 1 0.604
1711 60 7 291 1 1 0 0.558
1712 60 7 292 2 2 1 0.513
1713 60 7 293 3 3 2 0.755
1714 60 7 294 1 2 1 0.687
1715 60 7 295 2 2 1 0.494
1716 60 7 296 3 1 0 0.676
1717 60 7 297 1 2 1 0.675
1718 60 7 298 1 2 1 0.61
1719 60 7 299 1 2 1 0.58
1720 60 7 300 3 1 0 0.982
1721 60 7 301 3 3 2 0.73
1722 60 7 302 3 3 2 0.648
1723 60 7 303 2 3 2 0.904
1724 60 7 304 2 3 2 0.639
1725 60 7 305 1 3 2 0.864
1726 60 7 306 3 2 1 0.585
1727 60 7 307 1 2 1 0.555
1728 60 7 308 2 1 0 0.815
1729 60 7 309 1 3 2 1.624
1730 60 7 310 3 2 1 0.709
1731 60 7 311 1 1 0 1.411
1732 60 7 312 2 1 1 4.648
1733 60 7 313 2 3 2 0.853
1734 60 7 314 2 3 2 1.101
1735 60 7 315 1 3 2 0.605
1736 60 7 316 1 2 1 0.703
1737 60 7 317 1 2 1 0.605
1738 60 7 318 3 2 1 0.607
1739 60 7 319 2 3 2 0.737
1740 61 0 0 2 2 2 2.102
1741 61 0 1 2 3 2 1.085
1742 61 0 2 3 1 2 0.614
1743 61 0 3 3 2 1 0.691
1744 61 0 4 3 2 1 0.546
1745 61 0 5 1 2 1 0.75
1746 61 0 6 3 3 2 0.915
1747 61 0 7 2 1 0 1.009
1748 61 0 8 1 3 2 0.924
1749 61 0 9 3 3 0 0.795
1750 61 0 10 1 3 2 1.058
1751 61 0 11 1 3 2 0.58
1752 61 0 12 2 3 2 1.831
1753 61 0 13 1 3 2 0.741
1754 61 0 14 2 1 0 1.666
1755 61 0 15 3 1 0 0.798
1756 61 0 16 1 2 1 0.577
1757 61 0 17 3 1 0 1.236
1758 61 0 18 1 2 1 1.751
1759 61 0 19 1 1 0 0.745
1760 61 0 20 3 1 0 2.662
1761 61 0 21 1 3 2 0.662
1762 61 0 22 1 2 1 0.974
1763 61 0 23 2 3 2 1.659
1764 61 0 24 3 3 0 0.543
1765 61 0 25 2 3 0 1.263
1766 61 0 26 1 3 2 0.797
1767 61 0 27 2 1 2 0.704
1768 61 0 28 3 3 0 1.306
1769 61 0 29 2 1 2 3.671
1770 61 0 30 3 2 1 0.662
1771 61 0 31 1 1 0 1.014
1772 61 0 32 3 2 1 0.77
1773 61 0 33 1 2 1 0.75
1774 61 0 34 3 3 2 0.571
1775 61 0 35 1 2 1 0.598
1776 61 0 36 1 3 2 1
1777 61 0 37 1 1 0 0.556
1778 61 0 38 2 3 2 0.863
1779 61 0 39 3 3 2 0.792
1780 61 0 40 1 1 0 0.659
1781 61 0 41 3 1 0 0.747
1782 61 0 42 3 1 0 0.384
1783 61 0 43 1 1 0 0.466
1784 61 0 44 1 2 1 0.544
1785 61 0 45 2 3 2 0.78
1786 61 0 46 2 2 1 0.888
1787 61 0 47 3 3 0 3.368
1788 61 0 48 2 2 1 0.946
1789 61 0 49 3 3 2 2.528
1790 61 0 50 3 3 2 0.933
1791 61 0 51 2 2 1 1.004
1792 61 0 52 1 1 0 0.648
1793 61 0 53 3 3 2 1.952
1794 61 0 54 2 2 1 0.578
1795 61 0 55 3 3 2 1.876
1796 61 0 56 1 1 0 0.753
1797 61 0 57 3 1 2 1.493
1798 61 0 58 3 2 1 0.707
1799 61 0 59 2 2 1 0.441
1800 61 0 60 1 2 1 0.385
1801 61 0 61 3 3 2 0.491
1802 61 0 62 3 3 0 0.665
1803 61 0 63 1 3 2 1.908
1804 61 0 64 1 3 2 0.816
1805 61 0 65 3 3 2 0.842
1806 61 0 66 2 3 2 0.908
1807 61 0 67 1 3 2 1.395
1808 61 0 68 3 3 2 0.713
1809 61 0 69 1 2 1 0.431
1810 61 0 70 2 3 0 0.815
1811 61 0 71 3 1 0 0.701
1812 61 0 72 1 3 2 0.892
1813 61 0 73 2 3 2 1.027
1814 61 0 74 1 2 1 0.822
1815 61 0 75 1 3 2 0.761
1816 61 0 76 3 3 2 0.629
1817 61 0 77 2 1 0 1.046
1818 61 0 78 3 3 2 0.744
1819 61 0 79 1 1 0 0.629
1820 62 0 0 1 2 1 0.962
1821 62 0 1 2 3 2 2.303
1822 62 0 2 3 2 1 1.411
1823 62 0 3 1 3 0 1.92
1824 62 0 4 1 1 0 3.015
1825 62 0 5 3 3 2 1.482
1826 62 0 6 1 3 2 1.405
1827 62 0 7 1 1 0 1.362
1828 62 0 8 1 2 1 0.729
1829 62 0 9 2 1 1 2.743
1830 62 0 10 3 2 1 1.032
1831 62 0 11 1 2 1 1.363
1832 62 0 12 2 1 0 1.033
1833 62 0 13 1 1 0 0.908
1834 62 0 14 1 3 2 1.675
1835 62 0 15 3 1 2 2.862
1836 62 0 16 3 3 2 1.203
1837 62 0 17 2 3 2 3.928
1838 62 0 18 3 1 0 2.162
1839 62 0 19 3 3 2 2.524
1840 62 0 20 1 2 1 0.825
1841 62 0 21 3 1 0 1.219
1842 62 0 22 1 1 0 1.063
1843 62 0 23 1 3 2 1.728
1844 62 0 24 3 2 1 0.874
1845 62 0 25 2 3 2 0.954
1846 62 0 26 1 1 0 1
1847 62 0 27 3 1 0 1.235
1848 62 0 28 2 3 2 4.127
1849 62 0 29 3 1 2 1.242
1850 62 0 30 3 3 2 1.009
1851 62 0 31 1 2 1 0.78
1852 62 0 32 1 1 0 0.696
1853 62 0 33 2 1 0 1.455
1854 62 0 34 3 1 2 1.346
1855 62 0 35 1 2 1 0.765
1856 62 0 36 2 2 1 0.745
1857 62 0 37 2 1 0 1.07
1858 62 0 38 1 3 2 0.759
1859 62 0 39 1 3 2 0.644
1860 62 0 40 2 1 0 3.396
1861 62 0 41 1 3 2 2.106
1862 62 0 42 2 2 1 0.77
1863 62 0 43 3 3 2 1.198
1864 62 0 44 2 2 1 0.723
1865 62 0 45 2 2 1 0.552
1866 62 0 46 3 2 1 0.764
1867 62 0 47 2 3 2 1.48
1868 62 0 48 2 2 1 0.691
1869 62 0 49 2 1 0 0.729
1870 62 0 50 3 2 1 0.887
1871 62 0 51 2 1 0 0.942
1872 62 0 52 1 1 0 0.66
1873 62 0 53 2 1 0 1.3
1874 62 0 54 1 2 1 0.805
1875 62 0 55 3 3 2 0.903
1876 62 0 56 2 3 2 1.014
1877 62 0 57 1 3 2 0.809
1878 62 0 58 2 3 2 1.012
1879 62 0 59 1 3 2 0.535
1880 62 0 60 1 3 2 0.508
1881 62 0 61 3 3 2 0.681
1882 62 0 62 3 1 1 0.744
1883 62 0 63 3 3 2 1.137
1884 62 0 64 3 1 0 1.296
1885 62 0 65 1 3 2 1.489
1886 62 0 66 3 3 2 1.739
1887 62 0 67 2 3 2 1.26
1888 62 0 68 3 1 0 0.854
1889 62 0 69 1 2 1 0.759
1890 62 0 70 3 3 2 0.827
1891 62 0 71 2 2 1 1.437
1892 62 0 72 1 2 1 0.649
1893 62 0 73 1 3 0 0.801
1894 62 0 74 2 1 0 0.848
1895 62 0 75 3 2 1 0.85
1896 62 0 76 3 2 1 0.635
1897 62 0 77 2 2 1 0.635
1898 62 0 78 3 3 2 0.948
1899 62 0 79 2 1 0 0.721
1900 62 1 80 1 3 2 1.3
1901 62 1 81 1 3 2 0.837
1902 62 1 82 2 2 1 1.414
1903 62 1 83 2 3 0 1.082
1904 63 0 0 1 1 2 2.228
1905 62 1 84 3 2 1 0.871
1906 62 1 85 1 1 0 0.743
1907 62 1 86 2 1 0 0.82
1908 63 0 1 2 1 2 2.135
1909 62 1 87 2 2 1 0.734
1910 62 1 88 2 3 2 0.579
1911 62 1 89 1 3 2 0.558
1912 63 0 2 3 1 2 1.614
1913 62 1 90 2 2 1 0.529
1914 62 1 91 2 3 0 1.854
1915 63 0 3 1 2 2 3.608
1916 62 1 92 2 3 0 1.199
1917 63 0 4 2 2 1 2.314
1918 62 1 93 2 2 1 0.655
1919 63 0 5 3 3 2 2.238
1920 62 1 94 2 3 2 1.639
1921 62 1 95 1 2 1 0.94
1922 62 1 96 2 2 1 0.793
1923 63 0 6 3 1 2 1.477
1924 62 1 97 1 2 1 0.629
1925 63 0 7 3 1 0 1.412
1926 62 1 98 2 1 0 1.262
1927 62 1 99 2 3 2 0.944
1928 63 0 8 3 1 0 1.673
1929 62 1 100 1 2 1 0.614
1930 62 1 101 3 2 1 0.831
1931 63 0 9 2 3 2 1.941
1932 62 1 102 2 3 2 0.977
1933 63 0 10 3 3 2 1.687
1934 62 1 103 2 1 0 0.95
1935 62 1 104 3 1 0 0.931
1936 63 0 11 2 3 2 2.402
1937 63 0 12 1 1 0 1.779
1938 62 1 105 3 3 0 0.705
1939 62 1 106 1 3 2 1.028
1940 63 0 13 2 2 1 1.691
1941 62 1 107 1 2 1 0.718
1942 62 1 108 2 2 1 0.876
1943 62 1 109 3 1 0 0.828
1944 63 0 14 1 2 2 2.246
1945 62 1 110 1 1 0 0.67
1946 63 0 15 1 2 2 1.401
1947 62 1 111 3 3 2 3.357
1948 63 0 16 2 3 2 0.907
1949 62 1 112 1 3 2 0.821
1950 63 0 17 2 2 1 2.673
1951 63 0 18 3 3 2 1.017
1952 63 0 19 1 3 2 1.213
1953 62 1 113 2 3 0 4.687
1954 63 0 20 2 2 1 1.353
1955 62 1 114 2 3 2 1.514
1956 62 1 115 1 2 1 0.588
1957 62 1 116 2 1 0 1.062
1958 63 0 21 2 2 2 2.448
1959 62 1 117 1 3 0 0.831
1960 63 0 22 2 1 2 1.563
1961 62 1 118 1 1 0 2.165
1962 63 0 23 2 1 0 0.919
1963 63 0 24 2 1 0 0.797
1964 62 1 119 3 3 2 1.359
1965 63 0 25 3 3 2 0.984
1966 62 1 120 3 1 0 0.98
1967 62 1 121 3 1 0 0.729
1968 63 0 26 2 2 1 2.524
1969 63 0 27 3 3 2 0.97
1970 62 1 122 3 1 1 1.343
1971 63 0 28 1 1 0 0.75
1972 63 0 29 3 3 2 0.811
1973 62 1 123 3 1 0 1.018
1974 63 0 30 3 3 2 0.854
1975 62 1 124 1 3 2 1.781
1976 63 0 31 1 1 0 1.006
1977 62 1 125 3 3 2 2.213
1978 63 0 32 3 1 0 1.73
1979 62 1 126 2 2 1 0.589
1980 63 0 33 1 1 0 0.715
1981 62 1 127 1 2 1 0.664
1982 62 1 128 3 2 1 0.856
1983 63 0 34 3 2 2 1.242
1984 62 1 129 3 2 2 0.833
1985 63 0 35 3 3 0 1.28
1986 63 0 36 1 2 1 1.222
1987 62 1 130 1 2 0 1.486
1988 63 0 37 1 3 2 0.785
1989 62 1 131 2 2 1 0.468
1990 63 0 38 3 3 2 0.925
1991 62 1 132 3 2 1 1.019
1992 62 1 133 3 2 1 0.542
1993 63 0 39 3 2 1 1.411
1994 62 1 134 3 1 0 0.794
1995 63 0 40 1 2 1 1.848
1996 62 1 135 2 3 0 1.837
1997 63 0 41 3 2 2 1.021
1998 62 1 136 2 2 1 0.847
1999 62 1 137 1 2 1 1.304
2000 63 0 42 2 3 0 0.78
2001 62 1 138 3 3 2 0.873
2002 62 1 139 2 2 1 0.601
2003 62 1 140 3 1 0 0.667
2004 63 0 43 2 1 1 1.284
2005 62 1 141 2 3 0 0.723
2006 63 0 44 3 2 2 0.873
2007 63 0 45 1 1 0 0.845
2008 63 0 46 3 1 0 1.159
2009 62 1 142 2 3 1 1.421
2010 62 1 143 1 1 0 0.829
2011 62 1 144 3 1 0 0.959
2012 63 0 47 1 3 0 0.773
2013 63 0 48 2 2 1 1.389
2014 63 0 49 1 1 0 0.882
2015 62 1 145 2 1 1 1.949
2016 63 0 50 1 3 2 2.411
2017 62 1 146 1 1 2 1.226
2018 63 0 51 2 3 2 1.163
2019 62 1 147 2 2 1 0.458
2020 63 0 52 2 2 1 1.177
2021 62 1 148 2 1 0 1.105
2022 63 0 53 2 3 2 1.062
2023 63 0 54 1 2 1 2.084
2024 62 1 149 2 1 2 2.208
2025 62 1 150 3 1 0 1.359
2026 63 0 55 3 2 2 1.041
2027 62 1 151 1 2 1 0.974
2028 63 0 56 3 2 1 1.599
2029 62 1 152 1 1 0 0.786
2030 62 1 153 3 3 0 0.781
2031 63 0 57 2 3 0 2.557
2032 63 0 58 1 3 0 1.285
2033 62 1 154 2 1 1 2.917
2034 62 1 155 1 3 2 1.76
2035 63 0 59 1 2 2 1.274
2036 62 1 156 1 2 1 0.873
2037 63 0 60 2 2 1 0.848
2038 62 1 157 2 2 1 1.097
2039 62 1 158 2 2 1 0.657
2040 62 1 159 2 1 0 0.649
2041 62 2 160 2 2 2 1.434
2042 62 2 161 3 2 1 0.715
2043 62 2 162 1 3 2 1.528
2045 62 2 163 1 2 1 0.769
2046 62 2 164 3 3 2 0.997
2047 62 2 165 2 2 1 0.601
2048 62 2 166 1 3 2 0.787
2049 62 2 167 1 3 2 0.678
2050 62 2 168 1 1 0 0.774
2051 62 2 169 2 3 2 1.185
2052 62 2 170 3 1 2 1.07
2053 62 2 171 3 3 0 1.459
2054 62 2 172 1 3 1 0.994
2055 62 2 173 3 2 1 0.738
2056 62 2 174 2 1 0 0.951
2057 62 2 175 3 1 2 1.597
2058 62 2 176 1 1 0 1.039
2059 62 2 177 3 1 2 1.505
2060 62 2 178 3 3 0 0.902
2061 62 2 179 1 1 1 1.474
2062 62 2 180 2 1 0 2.032
2063 62 2 181 2 3 2 1.127
2064 62 2 182 2 2 1 0.59
2065 62 2 183 3 2 1 0.776
2066 62 2 184 2 2 1 0.844
2067 62 2 185 1 1 0 0.717
2068 62 2 186 1 1 2 2.291
2069 62 2 187 1 1 0 3.548
2070 62 2 188 2 3 2 1.437
2071 62 2 189 3 1 0 1.369
2072 62 2 190 1 2 1 0.951
2073 62 2 191 2 2 1 0.724
2074 62 2 192 1 2 1 0.578
2075 62 2 193 2 1 0 0.909
2076 62 2 194 1 2 1 0.892
2077 62 2 195 3 2 1 0.659
2078 62 2 196 3 1 0 0.851
2079 62 2 197 1 1 0 0.844
2080 62 2 198 1 3 2 0.918
2081 62 2 199 3 2 1 0.916
2082 62 2 200 2 1 0 0.722
2083 62 2 201 3 3 0 1.84
2084 62 2 202 3 2 1 0.641
2085 62 2 203 3 1 0 0.89
2086 62 2 204 3 3 2 0.617
2087 62 2 205 2 3 2 1.034
2088 62 2 206 1 3 2 0.732
2089 62 2 207 1 3 1 0.69
2090 62 2 208 3 1 0 1.188
2091 62 2 209 1 1 0 0.673
2092 62 2 210 2 3 2 2.736
2093 62 2 211 2 3 2 1.054
2094 62 2 212 1 1 0 0.832
2095 62 2 213 2 2 1 0.561
2096 64 0 0 2 2 1 1.297
2097 64 0 1 1 1 0 0.842
2098 62 2 214 2 3 2 2.3
2099 64 0 2 2 1 2 0.98
2100 62 2 215 3 1 2 1.537
2101 64 0 3 1 2 1 1.012
2102 62 2 216 3 2 1 0.693
2103 64 0 4 3 1 0 1.479
2104 62 2 217 3 3 2 1.916
2105 64 0 5 1 3 2 1.05
2106 62 2 218 2 2 1 0.647
2107 62 2 219 1 2 1 1.143
2108 64 0 6 2 1 0 1.836
2109 62 2 220 1 1 0 0.766
2110 64 0 7 1 3 2 1.409
2111 64 0 8 3 2 1 0.758
2112 62 2 221 2 2 1 3.362
2113 64 0 9 1 2 1 1.283
2114 62 2 222 1 2 1 0.752
2115 62 2 223 1 1 0 0.685
2116 64 0 10 1 1 2 1.18
2117 62 2 224 2 3 0 1.011
2118 64 0 11 1 1 0 2.262
2119 64 0 12 2 2 1 1.116
2120 64 0 13 3 3 2 0.731
2121 62 2 225 1 2 2 1.219
2122 62 2 226 3 2 1 0.642
2123 62 2 227 1 1 0 0.779
2124 64 0 14 2 3 2 2.569
2125 62 2 228 3 3 2 1.687
2126 62 2 229 1 2 1 0.858
2127 64 0 15 2 1 2 1.828
2128 62 2 230 1 1 0 0.85
2129 62 2 231 3 3 2 0.723
2130 62 2 232 2 2 1 0.705
2131 64 0 16 3 2 2 2.294
2132 62 2 233 1 1 0 0.887
2133 64 0 17 3 1 0 1.047
2134 62 2 234 3 2 1 1.054
2135 62 2 235 2 2 1 0.896
2136 64 0 18 3 3 2 1.241
2137 62 2 236 3 2 1 0.655
2138 64 0 19 1 3 2 1.652
2139 64 0 20 1 3 2 1.216
2140 62 2 237 2 3 0 0.807
2141 62 2 238 2 1 0 1.093
2142 64 0 21 3 1 1 1.276
2143 64 0 22 2 3 2 0.913
2144 62 2 239 2 1 1 1.038
2145 64 0 23 3 1 0 0.824
2146 64 0 24 3 2 1 0.882
2147 62 3 240 2 2 1 0.813
2148 62 3 241 2 1 0 0.807
2149 62 3 242 1 1 0 0.634
2150 64 0 25 3 1 2 1.994
2151 62 3 243 3 2 1 0.946
2152 62 3 244 2 1 0 0.8
2153 64 0 26 1 3 2 1.078
2154 64 0 27 3 2 1 0.919
2155 64 0 28 1 1 0 0.973
2156 62 3 245 2 1 2 1.139
2157 62 3 246 1 1 0 1.173
2158 64 0 29 3 2 2 0.85
2159 62 3 247 2 3 2 1.827
2160 62 3 248 3 1 0 0.825
2161 64 0 30 1 3 0 1.255
2162 62 3 249 2 3 2 1.107
2163 64 0 31 1 2 1 0.83
2164 62 3 250 1 1 0 1.027
2165 62 3 251 3 2 1 0.782
2166 62 3 252 1 1 0 0.826
2167 64 0 32 2 1 2 1.112
2168 62 3 253 1 1 0 0.564
2169 64 0 33 3 3 2 1.107
2170 64 0 34 3 2 1 0.946
2171 62 3 254 2 1 2 1.215
2172 64 0 35 2 3 0 0.792
2173 64 0 36 1 2 1 1.088
2174 62 3 255 1 1 2 1.591
2175 64 0 37 1 3 2 1.648
2176 62 3 256 3 1 2 1.441
2177 64 0 38 1 3 2 1.181
2178 62 3 257 2 3 0 0.801
2179 64 0 39 1 1 1 1.05
2180 62 3 258 2 2 1 0.528
2181 64 0 40 1 3 2 1.08
2182 62 3 259 2 2 1 0.492
2183 64 0 41 2 2 1 0.809
2184 62 3 260 2 2 1 0.471
2185 64 0 42 2 3 2 1.076
2186 64 0 43 2 3 2 0.981
2187 64 0 44 2 1 0 0.825
2188 62 3 261 3 1 2 2.197
2189 64 0 45 1 1 0 0.899
2190 62 3 262 3 1 0 0.794
2191 62 3 263 1 1 0 0.613
2192 62 3 264 1 2 1 0.679
2193 64 0 46 2 1 1 0.858
2194 62 3 265 2 3 0 0.902
2195 62 3 266 2 1 1 1.393
2196 62 3 267 3 3 2 0.947
2197 62 3 268 3 1 0 0.864
2199 62 3 269 2 1 0 1.665
2200 62 3 270 1 2 1 0.765
2201 62 3 271 1 3 2 0.778
2202 62 3 272 1 1 0 0.917
2203 62 3 273 1 2 1 0.692
2204 62 3 274 2 2 1 0.683
2205 62 3 275 3 1 2 1.938
2206 62 3 276 3 2 1 0.664
2207 62 3 277 1 2 1 0.8
2208 62 3 278 1 1 0 0.683
2209 62 3 279 1 1 0 0.61
2210 62 3 280 3 2 1 0.836
2211 62 3 281 3 1 0 0.733
2212 62 3 282 1 1 0 0.811
2213 62 3 283 3 3 2 0.949
2214 62 3 284 1 3 2 1.787
2215 62 3 285 2 1 0 1.13
2216 62 3 286 2 3 2 0.994
2217 62 3 287 3 3 2 1.174
2218 62 3 288 2 2 1 0.715
2219 62 3 289 2 1 0 0.777
2220 62 3 290 2 1 1 4.66
2221 62 3 291 2 3 2 0.937
2222 62 3 292 1 2 1 0.774
2223 62 3 293 2 3 2 0.834
2224 62 3 294 2 3 0 1.179
2225 62 3 295 1 2 1 0.653
2226 62 3 296 3 1 0 0.868
2227 62 3 297 1 3 2 0.901
2228 62 3 298 1 3 2 0.789
2229 62 3 299 1 1 0 0.728
2230 62 3 300 2 2 1 0.549
2231 62 3 301 2 1 0 0.785
2232 62 3 302 3 1 2 0.836
2233 62 3 303 3 3 2 1.474
2234 62 3 304 3 3 0 0.829
2235 62 3 305 2 1 0 0.986
2236 62 3 306 2 1 0 0.726
2237 62 3 307 3 1 0 1.046
2238 62 3 308 1 3 0 1.56
2239 62 3 309 1 3 2 1.38
2240 62 3 310 3 1 0 1.186
2241 62 3 311 3 2 1 0.967
2242 62 3 312 1 2 1 0.716
2243 62 3 313 2 1 0 0.874
2244 62 3 314 3 2 1 0.698
2245 62 3 315 2 2 1 0.704
2246 62 3 316 1 1 0 0.67
2247 62 3 317 3 3 2 0.829
2248 62 3 318 1 2 1 1.279
2249 62 3 319 1 2 1 0.665
2250 65 0 0 2 2 1 1.326
2251 65 0 1 2 1 0 0.822
2252 65 0 2 1 3 2 0.704
2254 66 0 0 3 2 1 0.715
2256 67 0 0 3 3 2 0.822
2257 67 0 1 2 3 2 0.624
2259 68 0 0 1 3 2 0.507
2260 68 0 1 3 3 2 0.62
2261 68 0 2 3 1 0 0.605
2262 68 0 3 1 2 -1 0.398
2263 68 0 4 1 1 0 0.716
2264 69 0 0 3 1 1 2.901
2265 69 0 1 1 2 1 0.879
2266 69 0 2 1 2 1 1.766
2267 69 0 3 3 2 1 2.566
2268 69 0 4 3 3 0 2.865
2269 69 0 5 1 2 1 1.037
2270 69 0 6 1 1 0 1.455
2271 69 0 7 1 1 0 4.73
2272 69 0 8 3 3 1 1.575
2273 69 0 9 3 1 1 5.098
2274 69 0 10 2 1 1 13.19
2275 69 0 11 2 2 1 1.008
2276 69 0 12 3 1 1 3.202
2277 69 0 13 2 3 1 4.386
2278 69 0 14 3 3 1 1.911
2279 69 0 15 3 3 1 1.309
2280 69 0 16 3 3 1 1.033
2281 69 0 17 3 1 1 0.799
2282 69 0 18 3 3 2 1.812
2283 69 0 19 2 1 0 2.55
2284 69 0 20 3 3 0 2.969
2285 69 0 21 2 3 1 11.682
2286 69 0 22 2 2 1 11.474
2287 69 0 23 2 1 0 3.349
2288 69 0 24 2 1 0 1.323
2289 69 0 25 1 2 1 1.099
2290 69 0 26 1 2 1 0.642
2291 69 0 27 3 1 0 1.961
2292 69 0 28 3 3 2 1.611
2293 69 0 29 1 1 0 1.576
2294 69 0 30 2 3 1 4.959
2295 69 0 31 2 1 1 1.544
2296 69 0 32 1 2 1 0.82
2297 69 0 33 3 3 2 1.333
2298 69 0 34 2 3 1 1.869
2299 69 0 35 2 3 1 1.292
2300 69 0 36 1 1 1 1.328
2301 69 0 37 2 1 1 2.483
2302 69 0 38 1 3 2 1.101
2303 69 0 39 2 1 1 2.197
2304 69 0 40 1 3 0 2.321
2305 69 0 41 3 2 1 4.097
2306 69 0 42 2 2 1 1.004
2307 69 0 43 1 1 0 4.727
2308 69 0 44 2 2 1 0.86
2309 69 0 45 3 3 1 2.341
2310 69 0 46 3 2 1 1.46
2311 69 0 47 3 3 0 3.024
2312 69 0 48 1 3 0 2.198
2313 69 0 49 1 1 1 2.299
2314 69 0 50 2 3 1 2.3
2315 69 0 51 2 2 1 2.908
2316 70 0 0 2 3 -1 1.274
2317 72 0 0 3 1 1 1.396
2318 72 0 1 3 2 1 0.846
2319 72 0 2 3 1 1 1.688
2320 72 0 3 1 1 1 1.863
2321 72 0 4 3 1 0 4.089
2322 72 0 5 1 2 1 1.15
2323 72 0 6 2 3 2 1.557
2324 72 0 7 2 2 1 0.766
2325 72 0 8 3 1 0 2.354
2326 72 0 9 2 2 1 2.566
2327 72 0 10 2 1 0 1.49
2328 72 0 11 2 1 1 2.597
2329 72 0 12 2 2 1 0.78
2330 72 0 13 3 2 1 1.497
2331 72 0 14 2 2 1 1.507
2332 72 0 15 1 3 2 10.91
2333 72 0 16 1 1 1 0.927
2334 72 0 17 1 3 1 5.634
2335 72 0 18 2 1 1 11.573
2336 72 0 19 1 2 1 3.09
2337 72 0 20 1 1 1 29.075
2338 72 0 21 3 2 1 1.038
2339 72 0 22 2 3 0 3.561
2340 72 0 23 2 1 1 1.421
2341 72 0 24 1 2 1 0.798
2342 72 0 25 1 1 1 1.778
2343 72 0 26 2 1 0 11.67
2344 72 0 27 3 3 0 6.291
2345 72 0 28 1 2 1 0.894
2346 72 0 29 2 3 0 11.47
2347 72 0 30 3 1 0 2.375
2348 72 0 31 3 3 2 1.819
2349 72 0 32 3 2 1 0.842
2350 72 0 33 2 2 1 1.283
2351 72 0 34 3 3 2 1.293
2352 72 0 35 3 2 1 1.087
2353 72 0 36 1 1 0 1.808
2354 72 0 37 2 3 2 2.392
2355 72 0 38 1 1 1 1.762
2356 72 0 39 1 1 1 1.847
2357 72 0 40 1 3 1 1.073
2358 72 0 41 1 1 1 4.159
2359 72 0 42 3 3 1 11.918
2360 72 0 43 1 1 1 3.968
2361 72 0 44 3 3 2 3.733
2362 72 0 45 3 3 1 5.216
2363 72 0 46 1 1 1 5.633
2364 72 0 47 2 1 0 3.132
2365 72 0 48 2 1 1 9.404
2366 72 0 49 1 2 1 0.759
2367 72 0 50 3 1 1 2.796
2368 72 0 51 1 3 1 4.044
2369 72 0 52 1 3 1 1.503
2370 72 0 53 3 2 1 2.862
2371 72 0 54 1 3 2 5.174
2372 72 0 55 1 2 1 0.837
2373 72 0 56 3 1 1 4.223
2374 72 0 57 2 1 1 3.42
2375 75 0 0 3 1 0 2.53
2376 75 0 1 3 2 0 6.079
2377 75 0 2 1 2 0 7.72
2378 75 0 3 3 1 0 2.544
2379 75 0 4 3 2 1 6.797
2380 75 0 5 1 2 1 2.745
2381 75 0 6 3 3 2 5.021
2382 75 0 7 3 2 1 2.706
2383 75 0 8 1 2 0 3.536
2384 75 0 9 3 2 1 2.732
2385 75 0 10 2 2 1 5.314
2386 75 0 11 3 3 0 1.436
2387 75 0 12 1 1 0 1.357
2388 75 0 13 1 1 0 2.492
2389 75 0 14 2 3 2 3.292
2390 75 0 15 2 1 0 2.189
2391 75 0 16 1 1 0 1.077
2392 75 0 17 3 1 0 1.198
2393 75 0 18 2 3 1 1.618
2394 75 0 19 1 2 1 1.499
2395 75 0 20 1 2 1 1.549
2396 75 0 21 1 3 2 1.508
2397 75 0 22 3 2 1 1.751
2398 75 0 23 3 3 2 2.008
2399 75 0 24 1 3 2 0.952
2400 75 0 25 1 3 2 1.246
2401 75 0 26 1 2 1 2.056
2402 75 0 27 1 1 0 2.662
2403 75 0 28 3 3 2 1.24
2404 75 0 29 2 1 0 1.827
2405 75 0 30 1 3 0 1.849
2406 75 0 31 2 1 0 4.323
2407 75 0 32 1 2 1 1.592
2408 75 0 33 3 3 2 1.79
2409 75 0 34 2 3 2 2.046
2410 75 0 35 2 3 0 1.773
2411 75 0 36 1 2 1 1.585
2412 75 0 37 1 3 2 1.888
2413 75 0 38 1 2 1 1.668
2414 75 0 39 1 2 1 1.92
2415 75 0 40 3 1 0 2.859
2416 75 0 41 2 1 1 1.541
2417 75 0 42 1 3 2 1.058
2418 75 0 43 2 3 2 2.108
2419 75 0 44 2 1 0 2.544
2420 75 0 45 1 3 0 1.429
2421 75 0 46 3 1 1 2.245
2422 75 0 47 2 3 2 1.337
2423 75 0 48 2 1 0 1.649
2424 75 0 49 2 1 0 1.774
2425 75 0 50 2 3 2 1.485
2426 75 0 51 1 1 0 2.72
2427 75 0 52 1 1 0 1.181
2428 75 0 53 3 3 0 1.866
2429 75 0 54 3 3 2 1.1
2430 75 0 55 3 1 0 1.541
2431 75 0 56 1 3 0 2.374
2432 76 0 0 1 3 2 2.712
2433 75 0 57 2 3 0 2.029
2434 76 0 1 2 3 1 1.503
2435 75 0 58 1 1 0 2.135
2436 76 0 2 2 3 1 1.068
2437 75 0 59 1 3 0 1.49
2438 76 0 3 1 3 0 1.513
2439 75 0 60 2 1 1 1.729
2440 76 0 4 2 1 1 1.063
2441 76 0 5 2 2 1 1.156
2442 75 0 61 3 3 0 2.574
2443 76 0 6 2 1 0 1.426
2444 75 0 62 2 2 1 1.349
2445 76 0 7 2 3 0 0.95
2446 75 0 63 1 3 2 1.924
2447 76 0 8 3 2 1 1.559
2448 75 0 64 1 2 2 1.336
2449 76 0 9 3 3 1 1.847
2450 75 0 65 2 2 1 1.243
2451 75 0 66 3 2 1 0.758
2452 76 0 10 2 2 1 1.704
2453 76 0 11 3 2 1 0.979
2454 75 0 67 2 1 0 2.179
2455 75 0 68 2 1 0 1.444
2456 76 0 12 3 1 1 1.432
2457 75 0 69 1 2 1 0.88
2458 75 0 70 2 3 2 2.064
2459 76 0 13 1 1 1 3.992
2460 75 0 71 1 2 0 1.727
2461 75 0 72 3 1 0 1.397
2462 76 0 14 2 1 1 0.878
2463 75 0 73 2 2 1 1.29
2464 75 0 74 3 1 0 1.403
2465 76 0 15 2 1 1 1.25
2466 75 0 75 3 2 1 1.505
2467 75 0 76 3 2 1 0.771
2468 76 0 16 2 3 1 1.161
2469 75 0 77 1 2 1 1.247
2470 76 0 17 2 3 2 1.812
2471 75 0 78 1 2 1 0.771
2472 76 0 18 2 2 1 0.954
2473 75 0 79 2 3 2 2.439
2474 76 0 19 3 1 0 2.559
2475 76 0 20 2 1 0 1.019
2476 75 1 80 3 3 0 1.937
2477 76 0 21 3 1 2 1.854
2478 76 0 22 1 2 1 1.071
2479 76 0 23 1 2 1 0.688
2480 75 1 81 2 1 0 3.879
2481 76 0 24 2 3 0 2.367
2482 75 1 82 1 1 0 5.067
2483 75 1 83 3 3 0 1.222
2484 76 0 25 2 1 1 4.239
2485 75 1 84 3 1 0 1.91
2486 76 0 26 3 1 1 3.691
2487 75 1 85 2 3 -1 1.441
2488 76 0 27 1 3 2 2.746
2489 76 0 28 2 1 0 1.311
2490 75 1 86 1 1 2 2.782
2491 76 0 29 3 2 1 1.031
2492 75 1 87 2 3 2 1.351
2493 76 0 30 1 2 1 0.777
2494 76 0 31 3 2 1 0.565
2495 75 1 88 1 2 1 1.943
2496 76 0 32 3 2 1 0.601
2497 75 1 89 3 2 1 0.809
2498 76 0 33 3 2 1 0.57
2499 76 0 34 3 2 1 0.477
2500 75 1 90 2 3 2 1.692
2501 76 0 35 1 3 2 1.412
2502 76 0 36 1 2 1 0.81
2503 75 1 91 3 2 2 1.135
2504 75 1 92 2 2 1 0.825
2505 76 0 37 1 3 0 1.093
2506 75 1 93 2 1 0 1.123
2507 76 0 38 2 3 2 3.106
2508 75 1 94 1 3 0 1.026
2509 76 0 39 2 3 2 1.466
2510 75 1 95 3 1 0 1.032
2511 76 0 40 2 3 2 0.845
2512 75 1 96 2 3 0 0.955
2513 75 1 97 3 1 0 1.051
2514 76 0 41 2 3 0 1.77
2515 75 1 98 1 3 2 1.709
2516 76 0 42 3 2 1 0.894
2517 76 0 43 2 2 1 0.47
2518 75 1 99 1 1 0 1.44
2519 76 0 44 3 2 1 0.493
2520 76 0 45 2 3 2 1.154
2521 75 1 100 3 2 2 1.124
2522 76 0 46 1 2 1 1.008
2523 75 1 101 2 2 1 0.56
2524 76 0 47 3 1 0 0.996
2525 75 1 102 1 2 0 0.972
2526 76 0 48 2 1 0 2.391
2527 75 1 103 3 1 0 1.142
2528 76 0 49 3 3 2 0.936
2529 76 0 50 2 2 1 0.687
2530 75 1 104 2 1 0 1.189
2531 76 0 51 3 3 2 0.862
2532 75 1 105 1 1 0 1.098
2533 76 0 52 1 1 0 1.847
2534 75 1 106 1 1 0 2.075
2535 76 0 53 3 1 0 1.454
2536 75 1 107 2 2 1 0.777
2537 76 0 54 3 2 1 0.85
2538 75 1 108 1 2 0 1.405
2539 76 0 55 3 1 1 0.635
2540 75 1 109 3 1 0 0.87
2541 76 0 56 3 3 2 1.208
2542 75 1 110 2 2 1 0.798
2543 76 0 57 3 3 2 1.188
2544 75 1 111 3 3 2 1.282
2545 76 0 58 1 2 1 0.913
2546 76 0 59 3 2 1 0.663
2547 76 0 60 2 2 1 0.647
2548 75 1 112 3 1 2 0.771
2549 76 0 61 2 2 1 0.488
2550 75 1 113 3 1 0 0.98
2551 76 0 62 3 2 1 0.51
2552 75 1 114 2 2 1 0.641
2553 76 0 63 3 2 1 0.467
2554 76 0 64 2 3 2 0.986
2555 75 1 115 1 3 2 1.474
2556 75 1 116 3 3 2 0.909
2557 76 0 65 3 2 1 0.975
2558 75 1 117 3 3 2 0.765
2559 75 1 118 2 3 2 0.856
2560 76 0 66 3 1 2 1.684
2561 75 1 119 3 3 2 1.001
2562 76 0 67 2 2 1 0.86
2563 75 1 120 3 1 0 0.901
2564 75 1 121 3 3 2 1.029
2565 76 0 68 3 1 0 2.485
2566 75 1 122 2 2 1 1.056
2567 76 0 69 1 3 2 0.943
2568 76 0 70 1 2 1 0.613
2569 75 1 123 1 1 2 1.235
2570 75 1 124 1 1 0 1.058
2571 76 0 71 3 1 2 1.03
2572 76 0 72 2 3 2 1.588
2573 75 1 125 1 1 2 1.364
2574 76 0 73 2 3 2 1.075
2575 75 1 126 2 1 1 0.839
2576 76 0 74 3 3 0 1.363
2577 75 1 127 2 1 0 1.054
2578 76 0 75 3 3 2 0.949
2579 75 1 128 1 1 0 1.24
2580 76 0 76 3 2 1 0.89
2581 76 0 77 3 1 0 1.586
2582 75 1 129 3 2 1 3.035
2583 76 0 78 2 1 0 0.912
2584 75 1 130 3 3 2 1.407
2585 75 1 131 2 3 2 0.837
2586 75 1 132 1 2 1 1.374
2587 76 0 79 1 3 0 2.727
2588 75 1 133 1 1 0 1.253
2589 75 1 134 3 2 1 1.272
2590 76 1 80 2 3 2 1.249
2591 75 1 135 3 2 1 0.659
2592 76 1 81 1 3 2 0.7
2593 75 1 136 3 1 0 1.283
2594 76 1 82 2 1 2 0.586
2595 75 1 137 2 3 2 1.556
2596 76 1 83 2 3 2 1.449
2597 75 1 138 3 1 2 0.996
2598 76 1 84 1 1 2 0.604
2599 75 1 139 2 3 0 1.549
2600 76 1 85 2 1 0 3.402
2601 75 1 140 3 2 1 1.705
2602 75 1 141 3 1 0 1.156
2603 76 1 86 3 1 2 1.447
2604 75 1 142 3 1 0 0.778
2605 75 1 143 1 2 1 0.862
2606 76 1 87 2 1 2 2.007
2607 75 1 144 1 1 2 1.703
2608 76 1 88 1 3 2 1.539
2609 76 1 89 1 1 2 0.659
2610 75 1 145 3 1 2 2.109
2611 75 1 146 1 3 2 1.182
2612 76 1 90 1 2 2 1.598
2613 75 1 147 2 2 1 1.156
2614 76 1 91 1 2 1 0.6
2615 75 1 148 2 1 0 0.978
2616 75 1 149 1 3 2 1.064
2617 76 1 92 3 1 2 1.258
2618 75 1 150 2 2 1 0.826
2619 76 1 93 1 2 1 0.8
2620 76 1 94 2 3 2 1.195
2621 75 1 151 3 2 2 1.012
2622 76 1 95 3 1 0 1.847
2623 75 1 152 1 2 1 1.947
2624 76 1 96 2 2 1 0.893
2625 75 1 153 2 3 2 1.285
2626 76 1 97 3 1 0 1.749
2627 75 1 154 2 3 2 1.702
2628 76 1 98 2 3 2 1.262
2629 76 1 99 3 3 2 0.808
2630 75 1 155 2 3 2 2.417
2631 75 1 156 3 2 1 0.841
2632 76 1 100 3 1 2 0.579
2633 75 1 157 1 3 2 1.162
2634 76 1 101 1 1 0 1.49
2635 75 1 158 1 2 1 1.369
2636 76 1 102 3 3 2 0.912
2637 75 1 159 2 1 0 0.952
2638 76 1 103 3 3 2 0.743
2639 75 2 160 3 1 0 1.851
2640 76 1 104 3 2 0 1.092
2641 75 2 161 1 1 0 0.736
2642 76 1 105 1 2 1 0.72
2643 75 2 162 2 3 2 0.91
2644 76 1 106 3 2 1 0.847
2645 75 2 163 1 2 1 0.805
2646 75 2 164 3 2 1 0.856
2647 76 1 107 2 1 1 0.616
2648 75 2 165 2 2 1 0.769
2649 76 1 108 2 1 0 2.166
2650 75 2 166 2 1 0 1.076
2651 76 1 109 1 3 2 0.896
2652 75 2 167 1 2 1 0.837
2653 75 2 168 2 3 2 0.631
2654 76 1 110 2 1 0 1.56
2655 75 2 169 1 3 2 1.017
2656 75 2 170 1 1 0 1.228
2657 76 1 111 2 1 2 1.048
2658 75 2 171 3 3 2 1.151
2659 76 1 112 3 3 2 0.726
2660 75 2 172 2 1 0 1.134
2661 75 2 173 2 3 2 0.862
2662 76 1 113 1 1 2 0.708
2663 75 2 174 2 1 2 0.823
2664 75 2 175 3 1 0 1.006
2665 75 2 176 2 3 2 1.042
2666 76 1 114 1 3 0 4.927
2667 75 2 177 2 3 2 0.733
2668 76 1 115 3 1 0 1.122
2669 75 2 178 3 2 1 0.905
2670 75 2 179 1 3 2 0.855
2671 76 1 116 3 2 1 1.153
2672 75 2 180 2 1 0 0.904
2673 76 1 117 3 2 1 0.719
2674 76 1 118 1 3 2 0.876
2675 75 2 181 3 2 1 1.343
2676 76 1 119 1 3 2 0.741
2677 75 2 182 2 3 2 0.607
2678 76 1 120 1 3 2 0.627
2679 75 2 183 1 1 0 0.977
2680 75 2 184 1 3 2 0.974
2681 76 1 121 1 2 2 0.659
2682 75 2 185 1 2 1 0.74
2683 75 2 186 1 1 0 1.104
2684 75 2 187 1 2 1 0.984
2685 75 2 188 2 3 2 0.62
2686 76 1 122 2 1 2 2.783
2687 76 1 123 3 1 2 0.91
2688 75 2 189 2 3 0 1.213
2689 76 1 124 1 1 2 0.593
2690 75 2 190 2 3 0 0.965
2691 76 1 125 1 3 2 0.607
2692 75 2 191 1 1 0 0.709
2693 76 1 126 3 2 1 0.929
2694 75 2 192 1 2 1 0.86
2695 76 1 127 1 1 0 0.984
2696 75 2 193 2 2 1 0.677
2697 75 2 194 2 2 1 0.885
2698 76 1 128 2 2 1 1.644
2699 75 2 195 1 2 1 1.596
2700 76 1 129 1 1 2 0.73
2701 75 2 196 3 2 1 0.986
2702 75 2 197 1 2 0 1.526
2703 76 1 130 1 2 1 4.083
2704 75 2 198 1 3 2 0.875
2705 76 1 131 2 1 0 1.56
2706 76 1 132 3 3 2 0.807
2707 75 2 199 1 1 2 0.596
2708 76 1 133 1 3 2 1.01
2709 75 2 200 3 3 2 1.226
2710 75 2 201 1 3 2 1.053
2711 76 1 134 2 2 2 1.189
2712 75 2 202 1 2 1 1.087
2713 76 1 135 3 1 0 0.99
2714 75 2 203 3 3 2 0.895
2715 76 1 136 1 3 2 1.058
2716 75 2 204 2 2 1 0.791
2717 75 2 205 2 1 0 0.65
2718 76 1 137 3 1 0 1.045
2719 76 1 138 3 3 2 0.823
2720 75 2 206 2 2 1 1.548
2721 76 1 139 1 2 1 0.785
2722 76 1 140 1 2 1 1.294
2723 75 2 207 2 1 2 0.723
2724 76 1 141 2 1 0 0.903
2725 75 2 208 2 2 1 1.021
2726 75 2 209 1 3 2 1.176
2727 76 1 142 1 2 1 1.695
2728 75 2 210 2 3 2 0.846
2729 76 1 143 1 3 2 0.939
2730 75 2 211 2 3 2 0.816
2731 76 1 144 3 2 0 0.769
2732 75 2 212 1 2 1 0.911
2733 75 2 213 1 2 1 1.142
2734 76 1 145 3 2 2 0.746
2735 75 2 214 2 1 0 0.909
2736 76 1 146 1 2 1 1.075
2737 75 2 215 3 1 0 0.925
2738 75 2 216 1 2 1 0.676
2739 76 1 147 2 1 0 0.852
2740 75 2 217 3 1 0 1.027
2741 76 1 148 3 2 1 1.245
2742 75 2 218 3 2 1 0.781
2743 76 1 149 2 1 0 0.84
2744 75 2 219 1 3 2 0.682
2745 76 1 150 2 1 0 0.849
2746 76 1 151 1 1 0 0.682
2747 75 2 220 3 2 1 1.729
2748 75 2 221 3 1 0 0.899
2749 76 1 152 3 1 1 1.514
2750 75 2 222 3 3 0 1.259
2751 76 1 153 2 3 2 1.063
2752 75 2 223 1 1 0 0.801
2753 76 1 154 2 2 1 0.952
2754 75 2 224 3 2 1 0.932
2755 75 2 225 1 2 1 0.53
2756 76 1 155 1 3 0 0.941
2757 75 2 226 1 3 2 0.896
2758 76 1 156 3 3 2 0.798
2759 75 2 227 3 2 0 2.504
2760 76 1 157 2 3 1 3.961
2761 75 2 228 3 2 0 0.794
2762 76 1 158 2 3 0 0.751
2763 75 2 229 2 2 0 1.137
2764 76 1 159 2 2 1 1.688
2765 75 2 230 3 1 0 0.877
2766 75 2 231 1 2 1 1.062
2767 76 2 160 1 3 2 1.432
2768 75 2 232 3 1 0 0.877
2769 76 2 161 2 3 2 0.828
2770 75 2 233 1 3 0 1.094
2771 76 2 162 1 3 0 0.869
2772 75 2 234 2 3 2 3.235
2773 76 2 163 2 3 1 1.721
2774 75 2 235 1 2 1 1.631
2775 76 2 164 3 1 0 1.439
2776 75 2 236 2 3 2 0.956
2777 75 2 237 3 2 1 1.018
2778 76 2 165 3 2 1 2.02
2779 75 2 238 3 1 0 1.046
2780 76 2 166 2 2 1 0.594
2781 76 2 167 2 2 1 0.468
2782 75 2 239 2 3 0 0.992
2783 76 2 168 1 3 1 0.46
2784 76 2 169 1 2 1 0.864
2785 76 2 170 1 2 1 0.569
2786 76 2 171 1 3 2 1.228
2787 75 3 240 1 3 0 1.418
2788 76 2 172 1 3 2 1.431
2789 75 3 241 1 2 1 1.428
2790 76 2 173 3 1 0 1.116
2791 76 2 174 1 1 0 0.733
2792 75 3 242 3 2 0 1.729
2793 76 2 175 3 3 2 0.842
2794 76 2 176 1 2 1 0.947
2795 75 3 243 2 2 1 1.358
2796 75 3 244 1 1 0 1.205
2797 76 2 177 3 2 1 3
2798 75 3 245 2 3 2 0.89
2799 76 2 178 2 1 0 0.787
2800 75 3 246 3 3 2 0.721
2801 76 2 179 3 2 1 0.989
2802 75 3 247 3 1 0 2.102
2803 75 3 248 1 1 0 0.771
2804 76 2 180 1 3 0 0.849
2805 75 3 249 2 3 2 1.245
2806 76 2 181 2 1 0 1.158
2807 75 3 250 1 3 2 0.816
2808 75 3 251 3 1 0 1.211
2809 76 2 182 2 2 1 3.62
2810 75 3 252 1 2 1 0.784
2811 75 3 253 3 2 1 1.141
2812 75 3 254 1 2 1 0.548
2813 76 2 183 3 3 0 1.034
2814 75 3 255 1 2 1 1.128
2815 76 2 184 3 3 2 0.969
2816 75 3 256 1 2 1 0.888
2817 76 2 185 1 2 1 1.551
2818 75 3 257 1 2 1 0.8
2819 76 2 186 3 1 0 0.719
2820 75 3 258 3 1 0 1.114
2821 75 3 259 3 1 0 0.834
2822 76 2 187 3 2 0 0.862
2823 75 3 260 2 1 0 1.131
2824 76 2 188 1 3 0 0.899
2825 76 2 189 3 2 1 0.742
2826 75 3 261 2 3 0 1.697
2827 76 2 190 1 1 0 0.98
2828 75 3 262 2 3 2 2.281
2829 76 2 191 2 1 0 1.032
2830 75 3 263 2 3 2 0.582
2831 75 3 264 2 2 1 1.201
2832 76 2 192 1 3 0 0.81
2833 75 3 265 3 1 0 1.038
2834 75 3 266 2 1 0 0.705
2835 76 2 193 1 3 1 0.656
2836 75 3 267 3 3 2 0.892
2837 76 2 194 2 2 1 1.052
2838 75 3 268 3 1 0 0.996
2839 75 3 269 1 1 0 0.975
2840 76 2 195 2 3 0 0.814
2841 75 3 270 2 3 2 1.315
2842 76 2 196 2 1 0 0.805
2843 75 3 271 1 2 1 0.82
2844 76 2 197 3 1 0 0.943
2845 75 3 272 2 2 1 0.566
2846 76 2 198 3 1 0 0.724
2847 76 2 199 2 1 0 0.722
2848 75 3 273 2 1 0 1.202
2849 76 2 200 1 1 0 0.592
2850 75 3 274 1 1 0 0.815
2851 75 3 275 2 1 0 0.77
2852 76 2 201 1 3 0 0.467
2853 75 3 276 1 3 2 0.838
2854 75 3 277 1 1 0 1.167
2855 76 2 202 1 3 0 0.693
2856 75 3 278 1 2 1 0.773
2857 76 2 203 1 2 1 0.833
2858 75 3 279 2 2 1 1.425
2859 75 3 280 1 2 1 1.173
2860 75 3 281 1 1 0 1.115
2861 76 2 204 1 3 1 2.843
2862 75 3 282 2 1 0 1.059
2863 76 2 205 2 1 0 0.986
2864 75 3 283 3 3 2 0.796
2865 75 3 284 1 3 2 0.824
2866 76 2 206 3 3 1 1.022
2867 75 3 285 1 1 0 1.138
2868 75 3 286 1 1 0 1.194
2869 75 3 287 1 2 1 0.711
2870 76 2 207 3 3 2 3.65
2871 75 3 288 3 2 1 1.029
2872 76 2 208 1 2 1 0.904
2873 75 3 289 3 1 0 0.823
2874 76 2 209 2 3 0 1.151
2875 75 3 290 3 3 0 0.857
2876 76 2 210 1 2 1 0.985
2877 75 3 291 3 2 1 1.221
2878 75 3 292 2 1 0 0.921
2879 75 3 293 2 2 1 0.727
2880 76 2 211 1 3 1 2.334
2881 75 3 294 2 2 1 1.069
2882 75 3 295 3 2 1 0.942
2883 76 2 212 3 1 0 1.519
2884 75 3 296 2 3 2 0.7
2885 76 2 213 2 1 0 1.04
2886 76 2 214 3 1 0 0.755
2887 76 2 215 2 2 1 0.976
2888 75 3 297 3 1 2 1.099
2889 75 3 298 2 1 0 1.24
2890 76 2 216 1 3 2 1.621
2891 75 3 299 2 2 1 0.9
2892 75 3 300 2 2 1 1.108
2893 76 2 217 1 3 0 1.715
2894 75 3 301 3 3 2 0.86
2895 76 2 218 3 2 1 0.729
2896 75 3 302 3 2 1 1.42
2897 75 3 303 2 2 1 0.993
2898 76 2 219 1 3 2 2.118
2899 75 3 304 2 2 1 0.613
2900 75 3 305 3 3 2 0.964
2901 76 2 220 1 3 0 0.898
2902 75 3 306 3 3 2 1.993
2903 75 3 307 2 1 0 1.114
2904 76 2 221 1 2 1 3.669
2905 75 3 308 2 1 0 0.761
2906 76 2 222 2 2 1 0.986
2907 75 3 309 3 2 1 0.557
2908 76 2 223 1 2 1 0.575
2909 75 3 310 2 2 1 0.681
2910 75 3 311 3 2 1 0.56
2911 75 3 312 2 2 1 0.436
2912 76 2 224 3 3 1 1.842
2913 75 3 313 3 3 2 1.636
2914 75 3 314 2 1 0 0.743
2915 76 2 225 1 3 0 1.06
2916 75 3 315 3 2 1 0.861
2917 76 2 226 2 1 0 0.801
2918 75 3 316 2 2 1 0.614
2919 76 2 227 2 3 2 1.628
2920 75 3 317 3 3 2 2.231
2921 76 2 228 3 2 1 0.793
2922 75 3 318 2 1 0 1.191
2923 76 2 229 2 2 1 1.588
2924 75 3 319 2 2 1 0.468
2925 76 2 230 1 1 0 0.819
2926 76 2 231 2 1 0 0.973
2927 76 2 232 1 1 0 0.658
2928 76 2 233 3 2 1 0.801
2929 76 2 234 3 3 2 0.941
2930 76 2 235 2 1 0 1.778
2931 76 2 236 2 2 1 0.746
2932 76 2 237 3 2 1 1.895
2933 76 2 238 1 1 0 0.875
2934 76 2 239 2 3 2 1.14
2935 76 3 240 1 1 0 1.395
2936 76 3 241 1 3 2 0.985
2937 76 3 242 3 1 0 0.974
2938 76 3 243 2 3 1 1.603
2939 76 3 244 2 3 2 1.166
2940 76 3 245 2 3 2 0.86
2941 76 3 246 1 1 0 0.821
2942 76 3 247 2 3 2 1.183
2943 76 3 248 1 1 0 1.5
2944 76 3 249 3 2 1 0.99
2945 76 3 250 3 2 1 0.77
2946 76 3 251 1 3 2 0.894
2947 76 3 252 1 2 1 1.093
2948 76 3 253 2 3 2 0.79
2949 76 3 254 1 1 1 0.673
2950 76 3 255 2 1 0 0.861
2951 76 3 256 2 3 2 2.118
2952 76 3 257 1 3 2 0.786
2953 76 3 258 2 2 1 0.621
2954 76 3 259 2 3 2 1.246
2955 76 3 260 2 1 0 0.649
2956 76 3 261 2 3 2 0.842
2957 76 3 262 1 3 2 1.523
2958 76 3 263 2 3 2 1.844
2959 76 3 264 2 1 0 0.985
2960 76 3 265 3 3 2 0.943
2961 76 3 266 1 3 2 2.596
2962 76 3 267 3 1 0 0.767
2963 76 3 268 2 2 1 0.779
2964 76 3 269 3 1 0 0.806
2965 76 3 270 1 1 0 0.657
2966 76 3 271 1 2 1 0.993
2967 76 3 272 3 2 1 1.254
2968 76 3 273 3 3 0 1.519
2969 76 3 274 3 3 2 0.781
2970 76 3 275 2 2 1 0.793
2971 76 3 276 3 2 1 0.787
2972 76 3 277 1 3 2 1.664
2973 76 3 278 2 2 1 0.717
2974 76 3 279 3 1 0 0.683
2975 76 3 280 3 1 0 1.257
2976 76 3 281 2 3 2 1.86
2977 76 3 282 2 2 0 1.53
2978 76 3 283 1 3 2 1.062
2979 76 3 284 3 1 0 0.888
2980 76 3 285 1 2 1 0.608
2981 76 3 286 1 2 1 0.69
2982 76 3 287 3 3 2 1.217
2983 76 3 288 2 3 2 0.67
2984 76 3 289 1 2 1 1.165
2985 76 3 290 2 1 0 0.684
2986 76 3 291 2 3 2 1.802
2987 76 3 292 3 3 0 0.833
2988 76 3 293 3 1 0 2.711
2989 76 3 294 1 3 2 0.797
2990 76 3 295 1 2 1 0.905
2991 76 3 296 1 1 0 0.687
2992 76 3 297 2 1 0 1.333
2993 76 3 298 1 2 1 0.765
2994 76 3 299 2 3 2 0.745
2995 76 3 300 2 1 0 0.87
2996 76 3 301 2 1 0 0.942
2997 76 3 302 1 3 2 2.388
2998 76 3 303 1 2 1 0.663
2999 76 3 304 1 1 0 0.678
3000 76 3 305 2 2 1 0.71
3001 76 3 306 3 2 1 0.804
3002 76 3 307 1 1 0 0.751
3003 76 3 308 1 2 2 0.747
3004 76 3 309 2 2 1 1.396
3005 76 3 310 2 3 2 0.777
3006 76 3 311 2 1 0 0.774
3007 76 3 312 1 2 1 1.121
3008 76 3 313 1 2 0 0.945
3009 76 3 314 1 1 1 0.754
3010 76 3 315 2 1 0 0.778
3011 76 3 316 1 1 0 0.726
3012 76 3 317 1 1 0 0.548
3013 76 3 318 3 3 2 0.728
3014 76 3 319 1 3 0 0.614
3015 79 0 0 1 1 0 3.226
3016 79 0 1 3 2 1 1.439
3017 79 0 2 2 3 2 1.13
3018 79 0 3 3 1 2 0.834
3019 79 0 4 2 1 0 1.048
3020 79 0 5 3 2 1 1.227
3021 79 0 6 2 3 0 3.863
3022 79 0 7 2 1 0 4.385
3023 79 0 8 3 3 2 2.268
3024 79 0 9 2 1 1 0.97
3025 79 0 10 1 2 1 1.58
3026 79 0 11 3 3 2 0.82
3027 79 0 12 1 1 0 0.702
3028 79 0 13 3 3 2 0.758
3029 79 0 14 1 3 0 0.931
3030 79 0 15 1 1 0 2.221
3031 79 0 16 1 2 1 1.062
3032 79 0 17 1 3 2 0.832
3033 79 0 18 2 3 0 1.514
3034 79 0 19 1 1 0 1.136
3035 79 0 20 2 1 0 0.943
3036 79 0 21 2 1 1 1.206
3037 79 0 22 1 2 1 2.199
3038 79 0 23 3 3 0 4.024
3039 79 0 24 3 3 0 1.58
3040 79 0 25 1 3 2 0.976
3041 79 0 26 2 3 1 2.069
3042 79 0 27 3 2 1 2.431
3043 79 0 28 1 2 1 2.152
3044 79 0 29 3 2 1 0.843
3045 79 0 30 1 1 2 1.493
3046 79 0 31 1 2 1 1.875
3047 79 0 32 3 1 0 1.592
3048 79 0 33 3 2 1 1.007
3049 79 0 34 2 1 0 1.235
3050 79 0 35 2 1 2 0.919
3051 79 0 36 1 1 1 0.77
3052 79 0 37 2 2 1 0.763
3053 79 0 38 1 3 2 1.136
3054 79 0 39 1 1 0 0.903
3055 79 0 40 2 2 1 0.703
3056 79 0 41 3 3 2 0.83
3057 79 0 42 1 1 0 1.6
3058 79 0 43 1 2 1 0.855
3059 79 0 44 2 3 2 1.153
3060 79 0 45 3 2 1 1.287
3061 79 0 46 1 2 1 1.153
3062 79 0 47 1 2 1 0.632
3063 79 0 48 2 3 2 1.057
3064 79 0 49 2 1 0 1.044
3065 79 0 50 1 3 0 0.774
3066 79 0 51 2 1 0 4.638
3067 79 0 52 1 3 0 1.104
3068 79 0 53 2 2 2 1.429
3069 79 0 54 2 3 2 1.07
3070 79 0 55 2 1 0 0.791
3071 79 0 56 2 3 2 1.227
3072 79 0 57 1 3 2 1.039
3073 79 0 58 3 1 2 0.666
3074 79 0 59 2 2 0 3.621
3075 79 0 60 3 3 2 0.751
3076 79 0 61 3 3 2 0.564
3077 79 0 62 2 3 2 0.608
3078 79 0 63 3 2 1 1.602
3079 79 0 64 1 3 2 0.72
3080 79 0 65 3 3 2 0.566
3081 79 0 66 1 3 2 0.594
3082 79 0 67 2 3 2 0.573
3083 79 0 68 1 1 2 0.537
3084 79 0 69 1 3 2 0.602
3085 79 0 70 1 1 2 0.532
3086 79 0 71 2 3 2 0.621
3087 79 0 72 2 2 1 1.543
3088 79 0 73 3 1 2 1.056
3089 79 0 74 1 2 1 1.87
3090 79 0 75 3 2 2 1.523
3091 79 0 76 2 3 2 0.801
3092 79 0 77 2 2 0 1.284
3093 79 0 78 3 1 2 0.611
3094 79 0 79 2 2 0 1.288
3095 79 1 80 2 1 0 3.444
3096 79 1 81 3 2 1 0.953
3097 79 1 82 3 1 2 1.055
3098 79 1 83 2 3 2 0.925
3099 79 1 84 1 3 2 0.94
3100 79 1 85 3 3 2 0.611
3101 79 1 86 1 1 2 0.988
3102 79 1 87 3 3 2 3.196
3103 79 1 88 3 1 0 1.498
3104 79 1 89 3 1 0 2.508
3105 79 1 90 2 3 0 2.715
3106 80 0 0 2 1 2 2.168
3107 79 1 91 1 2 1 1.501
3108 80 0 1 2 2 1 2.03
3109 79 1 92 2 3 2 1.119
3110 79 1 93 1 1 0 1.079
3111 80 0 2 1 3 2 1.726
3112 80 0 3 1 3 2 1.689
3113 80 0 4 2 2 1 2.132
3114 79 1 94 1 1 2 3.273
3115 79 1 95 1 1 0 1.655
3116 79 1 96 3 2 1 1.332
3117 80 0 5 3 1 0 4.144
3118 79 1 97 2 1 0 1.197
3119 80 0 6 1 2 1 1.363
3120 79 1 98 3 1 0 0.938
3121 80 0 7 3 2 1 1.659
3122 79 1 99 2 2 1 0.769
3123 80 0 8 1 3 2 1.304
3124 80 0 9 1 1 0 2.881
3125 79 1 100 1 3 0 3.142
3126 80 0 10 1 3 2 1.65
3127 79 1 101 2 1 0 2.425
3128 79 1 102 1 1 0 1.355
3129 80 0 11 2 3 2 2.703
3130 79 1 103 3 3 2 0.762
3131 80 0 12 1 1 0 2.23
3132 79 1 104 1 2 1 1.639
3133 80 0 13 2 2 1 1.278
3134 79 1 105 2 2 1 1.836
3135 80 0 14 1 1 0 2.104
3136 79 1 106 3 3 2 1.251
3137 80 0 15 3 3 2 1.813
3138 79 1 107 2 1 0 1.734
3139 80 0 16 2 3 2 1.581
3140 79 1 108 1 2 0 1.424
3141 80 0 17 2 1 0 2.268
3142 79 1 109 1 2 1 0.794
3143 79 1 110 1 3 2 1.093
3144 80 0 18 3 2 2 1.299
3145 79 1 111 1 2 0 0.79
3146 79 1 112 2 2 1 0.966
3147 80 0 19 3 1 2 1.144
3148 79 1 113 3 2 1 0.74
3149 79 1 114 3 2 1 1.377
3150 80 0 20 2 2 1 2.531
3151 79 1 115 3 1 0 1.392
3152 80 0 21 2 2 1 1.808
3153 79 1 116 1 3 2 2.151
3154 80 0 22 3 1 0 1.864
3155 79 1 117 2 2 1 0.73
3156 80 0 23 3 2 1 1.549
3157 79 1 118 1 1 0 1.056
3158 80 0 24 3 2 1 1.565
3159 79 1 119 1 1 0 0.89
3160 79 1 120 3 2 1 0.906
3161 80 0 25 1 1 0 2.957
3162 79 1 121 2 3 2 1.434
3163 79 1 122 2 2 1 0.798
3164 79 1 123 2 2 1 1.122
3165 80 0 26 3 1 0 2.859
3166 79 1 124 2 2 1 1.346
3167 80 0 27 2 2 1 1.885
3168 79 1 125 1 2 1 0.986
3169 79 1 126 3 2 1 0.758
3170 80 0 28 3 1 0 1.729
3171 80 0 29 2 2 1 1.436
3172 79 1 127 1 3 2 1.515
3173 79 1 128 3 1 2 0.685
3174 80 0 30 3 1 2 1.184
3175 79 1 129 2 3 0 0.777
3176 80 0 31 2 1 0 3.434
3177 80 0 32 2 3 2 1.639
3178 79 1 130 2 1 2 0.961
3179 79 1 131 1 2 1 0.802
3180 79 1 132 2 1 0 1.581
3181 80 0 33 1 3 0 3.028
3182 79 1 133 3 2 1 1.173
3183 79 1 134 1 3 2 1.099
3184 80 0 34 2 3 2 1.772
3185 79 1 135 1 3 2 0.668
3186 79 1 136 1 3 2 0.628
3187 80 0 35 3 3 2 1.525
3188 79 1 137 3 3 2 0.694
3189 80 0 36 3 1 0 1.382
3190 79 1 138 2 2 1 0.725
3191 80 0 37 2 1 0 1.421
3192 79 1 139 2 1 0 2.083
3193 80 0 38 1 1 0 1.282
3194 80 0 39 1 2 1 1.372
3195 80 0 40 1 3 2 1.155
3196 79 1 140 2 2 2 2.488
3197 80 0 41 1 3 2 0.914
3198 80 0 42 1 1 0 1.065
3199 79 1 141 1 1 0 2.299
3200 79 1 142 3 1 0 0.697
3201 79 1 143 3 1 0 1.032
3202 80 0 43 3 1 0 2.54
3203 79 1 144 1 2 1 0.836
3204 80 0 44 2 3 2 1.241
3205 79 1 145 1 2 0 0.79
3206 79 1 146 3 1 2 0.878
3207 80 0 45 2 2 1 5.733
3208 79 1 147 3 3 2 0.682
3209 80 0 46 1 2 1 1.487
3210 79 1 148 3 2 1 0.762
3211 79 1 149 1 3 2 1.111
3212 79 1 150 2 3 2 0.791
3213 80 0 47 3 3 0 1.33
3214 79 1 151 3 3 2 0.563
3215 79 1 152 3 3 2 0.527
3216 80 0 48 1 1 0 2.822
3217 79 1 153 1 2 1 0.82
3218 79 1 154 2 3 2 0.671
3219 79 1 155 3 3 2 0.679
3220 80 0 49 3 2 1 4.394
3221 79 1 156 3 1 2 0.494
3222 80 0 50 2 3 2 1.78
3223 79 1 157 3 1 1 0.649
3224 79 1 158 1 2 1 0.662
3225 80 0 51 3 2 1 2.508
3226 80 0 52 2 1 0 1.514
3227 79 1 159 2 1 2 0.71
3228 79 2 160 1 1 1 1.392
3229 80 0 53 3 2 1 7.756
3230 79 2 161 2 2 1 0.682
3231 80 0 54 3 3 2 1.198
3232 79 2 162 1 1 0 1.026
3233 79 2 163 1 1 0 0.901
3234 80 0 55 3 2 2 1.164
3235 80 0 56 2 1 0 1.366
3236 79 2 164 2 3 0 0.789
3237 79 2 165 1 3 0 0.549
3238 80 0 57 3 1 0 2.702
3239 80 0 58 1 3 2 2.159
3240 79 2 166 2 1 2 0.775
3241 79 2 167 2 2 1 0.983
3242 80 0 59 3 2 1 1.77
3243 79 2 168 2 1 0 1.484
3244 80 0 60 2 1 0 1.299
3245 80 0 61 1 1 0 1.068
3246 79 2 169 3 1 0 1.182
3247 79 2 170 2 2 1 0.636
3248 80 0 62 2 1 0 1.022
3249 79 2 171 2 1 0 1.11
3250 80 0 63 3 2 1 2.001
3251 80 0 64 1 2 1 1.506
3252 79 2 172 3 3 0 1.198
3253 80 0 65 2 1 0 1.428
3254 79 2 173 1 1 1 0.823
3255 80 0 66 3 1 0 1.129
3256 79 2 174 1 3 0 0.958
3257 80 0 67 1 1 0 3.513
3258 80 0 68 1 2 1 1.859
3259 79 2 175 3 3 1 1.424
3260 79 2 176 1 1 0 0.536
3261 80 0 69 1 2 1 4.297
3262 79 2 177 1 1 1 1.245
3263 80 0 70 2 2 1 2.871
3264 79 2 178 3 3 0 1.62
3265 80 0 71 1 3 0 1.768
3266 79 2 179 1 3 1 1.375
3267 79 2 180 1 2 1 0.805
3268 80 0 72 2 3 0 1.549
3269 79 2 181 3 1 1 0.625
3270 80 0 73 3 3 2 2.378
3271 79 2 182 2 3 2 1.238
3272 79 2 183 3 2 1 0.762
3273 79 2 184 1 2 1 0.871
3274 80 0 74 2 2 1 3.533
3275 79 2 185 1 3 2 1.455
3276 80 0 75 1 1 0 1.878
3277 79 2 186 2 2 1 0.771
3278 79 2 187 3 2 1 0.679
3279 79 2 188 1 1 0 0.975
3280 80 0 76 3 1 0 3.579
3281 79 2 189 2 3 0 0.781
3282 80 0 77 1 1 0 3.027
3283 79 2 190 1 3 1 0.757
3284 80 0 78 3 2 1 1.695
3285 79 2 191 2 1 1 0.742
3286 79 2 192 2 3 1 0.655
3287 80 0 79 3 1 2 4.091
3288 79 2 193 3 3 2 1.788
3289 79 2 194 1 1 0 0.94
3290 79 2 195 1 3 1 0.802
3291 79 2 196 2 2 1 1.642
3292 79 2 197 3 1 2 0.799
3293 79 2 198 1 1 0 1.239
3294 80 1 80 1 2 2 4.45
3295 79 2 199 1 2 1 0.89
3296 79 2 200 3 2 1 0.978
3297 79 2 201 2 1 0 1.344
3298 79 2 202 3 3 2 0.848
3299 80 1 81 1 1 0 5.911
3300 79 2 203 2 2 1 0.674
3301 80 1 82 1 1 0 1.42
3302 79 2 204 3 1 0 1.73
3303 80 1 83 3 3 2 1.473
3304 80 1 84 1 3 2 0.935
3305 79 2 205 2 1 0 1.437
3306 79 2 206 2 2 1 0.69
3307 80 1 85 2 2 1 1.166
3308 79 2 207 1 1 0 1.097
3309 80 1 86 2 2 1 2.236
3310 79 2 208 1 2 1 0.658
3311 79 2 209 1 3 2 0.811
3312 79 2 210 1 2 1 0.606
3313 80 1 87 1 2 1 2.773
3314 79 2 211 2 1 0 0.864
3315 79 2 212 1 3 2 0.786
3316 79 2 213 1 1 0 0.757
3317 80 1 88 3 1 0 3.129
3318 79 2 214 1 1 0 0.69
3319 80 1 89 2 3 2 2.033
3320 80 1 90 2 3 2 1.233
3321 80 1 91 1 2 1 1.325
3322 79 2 215 3 1 2 3.665
3323 79 2 216 2 1 0 0.882
3324 80 1 92 3 1 1 1.269
3325 79 2 217 1 3 2 0.699
3326 80 1 93 3 3 2 1.52
3327 79 2 218 2 1 2 0.663
3328 80 1 94 3 3 2 1.489
3329 80 1 95 1 2 1 1.38
3330 79 2 219 1 1 2 0.819
3331 79 2 220 1 2 1 0.89
3332 80 1 96 2 2 1 2.747
3333 79 2 221 1 1 2 0.81
3334 79 2 222 3 2 1 0.825
3335 80 1 97 1 1 0 4.176
3336 79 2 223 2 1 2 1.299
3337 80 1 98 3 1 2 1.907
3338 79 2 224 3 1 1 1.137
3339 79 2 225 2 2 1 0.708
3340 80 1 99 3 2 1 2.642
3341 79 2 226 1 3 2 1.091
3342 80 1 100 3 1 0 1.324
3343 79 2 227 3 2 1 0.859
3344 79 2 228 2 1 0 1.125
3345 79 2 229 1 2 1 0.749
3346 80 1 101 3 2 2 1.829
3347 79 2 230 2 1 0 1.346
3348 79 2 231 3 2 1 0.738
3349 80 1 102 2 2 0 2.103
3350 79 2 232 3 3 0 1.744
3351 80 1 103 1 2 1 3.184
3352 79 2 233 2 1 0 1.925
3353 80 1 104 1 2 1 1.493
3354 79 2 234 2 2 1 0.744
3355 80 1 105 2 1 0 2.103
3356 79 2 235 2 3 0 1.022
3357 80 1 106 3 3 2 1.572
3358 79 2 236 1 3 0 0.814
3359 79 2 237 1 2 1 0.66
3360 80 1 107 3 1 0 3.748
3361 79 2 238 2 2 1 0.701
3362 80 1 108 3 1 0 1.222
3363 79 2 239 1 2 0 0.708
3364 80 1 109 3 2 2 1.682
3365 79 3 240 3 3 2 0.786
3366 79 3 241 1 3 2 0.566
3367 79 3 242 2 2 1 0.658
3368 79 3 243 1 2 1 1.178
3369 80 1 110 2 2 0 2.394
3370 79 3 244 3 1 0 0.944
3371 80 1 111 1 1 0 1.4
3372 80 1 112 2 3 2 1.454
3373 80 1 113 2 3 2 1.106
3374 79 3 245 2 3 0 2.783
3375 80 1 114 1 1 0 1.298
3376 80 1 115 2 1 0 1.228
3377 79 3 246 3 3 0 0.703
3378 79 3 247 1 3 2 0.81
3379 80 1 116 3 1 0 3.897
3380 79 3 248 3 1 2 0.613
3381 79 3 249 3 2 1 0.923
3382 80 1 117 1 2 1 1.557
3383 80 1 118 2 1 0 3.286
3384 79 3 250 3 3 1 1.938
3385 79 3 251 1 2 1 0.705
3386 80 1 119 1 2 1 1.304
3387 80 1 120 3 3 2 1.505
3388 79 3 252 2 2 1 2.328
3389 79 3 253 2 1 0 0.886
3390 79 3 254 2 2 1 0.686
3391 80 1 121 2 1 1 1.763
3392 79 3 255 2 1 0 1.005
3393 80 1 122 3 2 1 1.448
3394 79 3 256 2 2 1 0.569
3395 80 1 123 1 1 0 1.293
3396 79 3 257 1 2 1 1.469
3397 79 3 258 3 2 1 0.713
3398 80 1 124 1 2 1 1.191
3399 79 3 259 2 2 1 0.559
3400 80 1 125 1 2 2 1.364
3401 79 3 260 2 3 0 1.603
3402 79 3 261 1 2 1 0.83
3403 80 1 126 2 2 1 2.263
3404 79 3 262 1 1 0 1.017
3405 80 1 127 3 2 1 2.255
3406 79 3 263 2 3 2 1.044
3407 79 3 264 2 2 1 0.695
3408 80 1 128 1 1 0 1.382
3409 79 3 265 2 3 0 0.854
3410 80 1 129 3 1 2 1.628
3411 79 3 266 1 2 1 1.292
3412 79 3 267 3 3 2 0.678
3413 80 1 130 1 3 2 1.67
3414 79 3 268 1 1 0 0.709
3415 80 1 131 1 3 2 1.426
3416 79 3 269 3 3 2 0.644
3417 79 3 270 2 2 0 1.685
3418 80 1 132 2 1 0 5.159
3419 79 3 271 3 3 2 0.709
3420 79 3 272 1 1 0 0.604
3421 79 3 273 2 1 2 0.654
3422 80 1 133 2 1 0 4.151
3423 79 3 274 3 2 1 0.811
3424 80 1 134 1 3 2 1.658
3425 79 3 275 2 3 0 0.678
3426 79 3 276 3 2 1 1.017
3427 80 1 135 1 1 2 2.007
3428 79 3 277 3 3 2 0.861
3429 79 3 278 2 1 0 1.798
3430 80 1 136 1 1 1 1.507
3431 79 3 279 1 3 2 0.871
3432 80 1 137 2 2 1 1.569
3433 79 3 280 3 3 2 0.736
3434 79 3 281 1 2 1 0.654
3435 79 3 282 3 2 2 0.606
3436 79 3 283 2 1 0 0.957
3437 80 1 138 3 1 1 4.337
3438 79 3 284 3 3 2 1.131
3439 79 3 285 2 1 2 0.635
3440 80 1 139 1 2 2 2.874
3441 79 3 286 2 3 2 0.789
3442 79 3 287 2 3 2 0.776
3443 79 3 288 3 3 2 0.588
3444 79 3 289 1 3 2 0.687
3445 80 1 140 2 1 2 3.015
3446 79 3 290 1 1 2 0.591
3447 80 1 141 3 1 2 2.415
3448 79 3 291 2 1 2 0.742
3449 79 3 292 1 1 2 0.712
3450 80 1 142 1 2 1 3.853
3451 79 3 293 2 1 0 0.874
3452 80 1 143 1 2 1 0.859
3453 79 3 294 2 2 1 0.675
3454 80 1 144 2 1 0 1.348
3455 79 3 295 2 2 1 0.763
3456 79 3 296 1 1 0 1
3457 79 3 297 1 2 1 0.564
3458 79 3 298 1 3 2 1.16
3459 80 1 145 3 3 -1 1.164
3460 79 3 299 3 1 2 0.703
3461 79 3 300 2 2 1 0.77
3462 79 3 301 1 1 0 0.798
3463 79 3 302 3 1 0 0.802
3464 79 3 303 1 1 0 0.606
3465 80 1 146 3 2 1 6.513
3466 79 3 304 2 2 1 0.6
3467 80 1 147 1 3 2 1.343
3468 79 3 305 2 3 2 1.066
3469 79 3 306 2 3 2 0.636
3470 80 1 148 1 2 1 2.647
3471 79 3 307 2 3 2 0.589
3472 79 3 308 1 3 2 0.488
3473 79 3 309 1 2 1 0.727
3474 80 1 149 2 2 1 2.88
3475 79 3 310 3 2 1 0.629
3476 80 1 150 1 3 2 1.409
3477 79 3 311 3 1 2 0.847
3478 79 3 312 3 2 1 0.668
3479 80 1 151 2 2 1 2.855
3480 79 3 313 2 3 2 0.636
3481 80 1 152 3 2 1 1.385
3482 79 3 314 3 1 1 0.853
3483 80 1 153 2 1 0 1.839
3484 80 1 154 1 1 0 2.374
3485 79 3 315 2 1 2 0.659
3486 79 3 316 1 1 0 1
3487 80 1 155 1 3 2 2.057
3488 79 3 317 3 1 0 1.204
3489 80 1 156 3 2 1 1.447
3490 79 3 318 3 3 0 0.577
3491 80 1 157 3 3 2 1.388
3492 80 1 158 2 1 0 1.602
3493 79 3 319 2 3 0 0.936
3494 80 1 159 1 1 0 1.969
3495 80 2 160 2 3 2 2.358
3496 80 2 161 3 1 0 2.186
3497 80 2 162 1 3 2 2.436
3498 80 2 163 1 2 1 1.093
3499 80 2 164 2 1 1 1.526
3500 80 2 165 3 1 0 2.979
3501 80 2 166 2 1 2 4.928
3502 80 2 167 1 2 1 1.347
3503 80 2 168 3 1 2 1.74
3504 80 2 169 3 1 2 3.409
3505 80 2 170 1 3 2 1.483
3506 80 2 171 3 3 2 0.91
3507 80 2 172 1 1 1 1.989
3508 80 2 173 3 1 2 2.674
3509 80 2 174 1 3 2 4.246
3510 80 2 175 1 3 2 1.254
3511 80 2 176 3 1 0 3.233
3512 80 2 177 2 1 0 1.414
3513 80 2 178 2 1 0 1.051
3514 80 2 179 2 2 1 1.166
3515 80 2 180 1 3 2 5.468
3516 80 2 181 1 2 1 1.216
3517 80 2 182 2 3 2 1.66
3518 80 2 183 1 1 0 1.273
3519 80 2 184 2 1 0 2.339
3520 80 2 185 3 2 1 1.064
3521 80 2 186 1 2 1 0.922
3522 80 2 187 3 2 1 2.289
3523 80 2 188 2 3 2 1.463
3524 80 2 189 2 3 0 1.643
3525 80 2 190 1 2 1 1.172
3526 80 2 191 3 2 1 1.026
3527 80 2 192 2 1 0 1.093
3528 80 2 193 2 2 1 1.222
3529 80 2 194 2 1 0 1.331
3530 80 2 195 3 1 2 2.059
3531 80 2 196 3 3 2 1.557
3532 80 2 197 2 3 0 1.285
3533 80 2 198 3 2 1 1.147
3534 80 2 199 2 1 0 1.355
3535 80 2 200 3 1 0 2.61
3536 80 2 201 1 3 2 2.109
3537 80 2 202 3 1 0 1.642
3538 80 2 203 3 1 1 2.551
3539 80 2 204 1 3 2 2.384
3540 80 2 205 2 1 0 1.667
3541 80 2 206 3 2 1 1.199
3542 80 2 207 1 2 1 2.221
3543 80 2 208 3 2 1 1.461
3544 80 2 209 2 1 0 1.385
3545 80 2 210 1 1 0 1.199
3546 80 2 211 3 3 2 1.421
3547 80 2 212 3 2 1 1.298
3548 80 2 213 1 1 0 1.404
3549 80 2 214 3 2 1 1.633
3550 80 2 215 2 3 2 1.471
3551 80 2 216 2 1 0 1.346
3552 80 2 217 2 3 2 1.658
3553 80 2 218 3 1 1 1.527
3554 80 2 219 1 2 1 1.412
3555 80 2 220 1 3 0 1.482
3556 80 2 221 2 1 2 2.393
3557 80 2 222 1 3 0 1.767
3558 80 2 223 1 2 1 1.196
3559 80 2 224 2 2 0 1.978
3560 80 2 225 2 2 1 2.151
3561 80 2 226 1 2 1 1.266
3562 80 2 227 2 2 1 1.309
3563 80 2 228 2 2 1 1.254
3564 80 2 229 3 2 1 1.345
3565 80 2 230 1 1 0 1.289
3566 80 2 231 3 1 1 1.587
3567 80 2 232 3 1 0 1.279
3568 80 2 233 3 3 2 2.169
3569 80 2 234 1 2 1 1.268
3570 80 2 235 2 3 2 1.214
3571 80 2 236 2 1 0 1.131
3572 80 2 237 1 2 1 1.723
3573 80 2 238 3 1 2 1.35
3574 80 2 239 3 3 2 1.306
3575 80 3 240 3 3 2 1.925
3576 80 3 241 2 3 2 1.16
3577 80 3 242 1 3 2 1.174
3578 80 3 243 1 3 2 1.572
3579 80 3 244 2 2 1 1.364
3580 80 3 245 2 1 1 1.308
3581 80 3 246 2 2 1 2.001
3582 80 3 247 3 1 0 1.345
3583 80 3 248 1 1 1 4.201
3584 80 3 249 2 3 1 4.791
3585 80 3 250 1 1 0 1.295
3586 80 3 251 3 3 2 1.273
3587 80 3 252 1 1 0 1.3
3588 80 3 253 3 3 2 1.182
3589 80 3 254 3 2 1 0.972
3590 80 3 255 2 3 2 1.233
3591 80 3 256 2 1 0 4.077
3592 80 3 257 1 3 2 1.411
3593 80 3 258 2 2 1 1.177
3594 80 3 259 2 2 1 1.286
3595 80 3 260 2 3 0 5.456
3596 80 3 261 3 2 1 1.264
3597 80 3 262 2 1 0 1.244
3598 80 3 263 2 1 1 2.327
3599 80 3 264 3 1 0 1.656
3600 80 3 265 3 3 2 1.477
3601 80 3 266 1 1 0 1.4
3602 80 3 267 3 2 1 1.118
3603 80 3 268 3 3 2 1.375
3604 80 3 269 1 3 2 1.942
3605 80 3 270 1 2 1 1.128
3606 80 3 271 1 2 1 1.096
3607 80 3 272 1 3 2 1.177
3608 80 3 273 2 1 0 6.055
3609 80 3 274 2 2 1 1.191
3610 80 3 275 3 3 2 1.092
3611 80 3 276 3 3 2 0.949
3612 80 3 277 1 2 1 1.019
3613 80 3 278 3 1 2 1.759
3614 80 3 279 2 2 1 1.892
3615 80 3 280 1 3 2 5.672
3616 80 3 281 1 3 2 0.949
3617 80 3 282 2 3 2 1.355
3618 80 3 283 1 2 1 1.267
3619 80 3 284 2 2 1 3.677
3620 80 3 285 1 3 2 2.034
3621 80 3 286 2 3 2 1.201
3622 80 3 287 3 3 2 1.054
3623 80 3 288 2 3 2 2.448
3624 80 3 289 1 3 2 4.128
3625 80 3 290 2 1 0 1.636
3626 80 3 291 2 3 1 2.37
3627 80 3 292 3 3 2 1.841
3628 80 3 293 1 1 0 1.159
3629 80 3 294 2 3 2 1.59
3630 80 3 295 3 3 2 1.477
3631 80 3 296 3 2 1 1.32
3632 80 3 297 3 2 1 1.249
3633 80 3 298 3 3 2 1.404
3634 80 3 299 2 1 2 1.41
3635 80 3 300 2 3 2 2.324
3636 80 3 301 3 3 2 1.193
3637 80 3 302 3 2 1 1.846
3638 80 3 303 2 2 1 1.148
3639 80 3 304 2 3 0 1.596
3640 80 3 305 2 2 0 7.622
3641 80 3 306 3 2 2 2.121
3642 80 3 307 2 1 0 1.073
3643 80 3 308 3 2 1 1.459
3644 80 3 309 1 1 0 1.367
3645 80 3 310 2 1 0 1.118
3646 80 3 311 2 2 1 1.038
3647 80 3 312 2 1 1 1.008
3648 80 3 313 3 3 0 3.137
3649 80 3 314 2 3 2 1.444
3650 80 3 315 2 3 2 4.505
3651 80 3 316 2 1 0 1.343
3652 80 3 317 3 2 1 1.255
3653 80 3 318 3 3 2 1.33
3654 80 3 319 1 3 1 1.467
3655 82 0 0 1 1 0 2.52
