datID sessionID block trial word col resp rt
2 45 0 0 3 2 1 1.058
3 45 0 1 2 3 0 2.022
4 46 0 0 2 3 2 1.306
5 46 0 1 1 1 0 2.478
6 46 0 2 3 2 2 2.296
7 46 0 3 2 1 0 1.546
8 46 0 4 1 2 1 0.811
9 46 0 5 2 3 2 1.494
10 46 0 6 2 2 1 1.934
11 46 0 7 3 2 1 4.378
12 46 0 8 2 3 2 0.653
13 46 0 9 1 1 0 0.539
14 46 0 10 2 1 0 0.594
15 46 0 11 2 1 0 0.564
16 46 0 12 1 2 1 0.761
17 46 0 13 2 1 0 0.669
18 46 0 14 1 1 0 0.491
19 46 0 15 1 2 1 1.108
20 46 0 16 1 2 1 0.76
21 46 0 17 3 1 2 1.102
22 46 0 18 1 1 0 4.603
23 46 0 19 3 2 1 0.969
24 46 0 20 3 3 2 0.641
25 46 0 21 2 1 2 1.005
26 46 0 22 1 2 1 0.685
27 46 0 23 2 1 0 0.687
28 46 0 24 2 1 0 0.984
29 46 0 25 1 1 2 0.858
30 46 0 26 2 2 1 1.01
31 46 0 27 1 2 1 0.769
32 46 0 28 1 3 0 0.683
33 46 0 29 2 2 0 2.742
34 46 0 30 1 3 1 0.275
35 46 0 31 1 1 0 0.941
36 46 0 32 2 1 0 0.827
37 46 0 33 3 2 1 0.669
38 46 0 34 1 1 2 0.715
39 46 0 35 3 1 0 1.327
40 46 0 36 3 1 0 0.543
41 46 0 37 2 1 0 0.869
42 46 0 38 1 3 0 0.603
43 46 0 39 1 3 2 0.843
44 46 1 40 1 2 1 0.975
45 46 1 41 3 3 2 1.046
46 46 1 42 2 3 2 0.677
47 46 1 43 2 2 1 1.174
48 46 1 44 2 2 1 0.623
49 46 1 45 2 1 1 0.299
50 49 0 0 1 3 2 0.958
51 49 0 1 3 3 0 0.962
52 49 0 2 1 2 2 0.931
53 49 0 3 1 3 2 1.525
54 49 0 4 2 3 2 1.542
55 49 0 5 3 3 2 1.206
56 49 0 6 3 2 0 0.979
57 49 0 7 2 3 2 1.395
58 49 0 8 3 1 1 2.025
59 49 0 9 1 3 2 0.803
60 49 0 10 2 2 0 1.214
61 49 0 11 2 2 1 1.558
62 49 0 12 3 3 2 0.71
63 49 0 13 1 3 2 0.884
64 49 0 14 1 1 0 0.908
65 49 0 15 3 1 1 1.155
66 49 0 16 2 1 2 0.909
67 49 0 17 3 3 2 1.008
68 49 0 18 3 2 1 1.203
69 49 0 19 3 2 1 1.055
70 49 0 20 3 2 2 0.865
71 49 0 21 3 2 1 2.917
72 49 0 22 1 2 1 0.916
73 49 0 23 2 1 0 5.131
74 49 0 24 1 1 0 0.939
75 49 0 25 1 1 2 3.264
76 49 0 26 1 3 2 9.055
77 49 0 27 1 2 1 1.234
78 49 0 28 3 2 1 1.181
79 49 0 29 3 1 0 1.146
80 49 0 30 1 2 2 1.385
81 49 0 31 2 1 2 0.779
82 49 0 32 2 1 0 1.634
83 49 0 33 2 2 1 1.135
84 49 0 34 2 2 2 0.973
85 49 0 35 1 2 2 1.246
86 49 0 36 1 3 2 0.869
87 49 0 37 2 2 1 2.061
88 49 0 38 2 2 1 1.097
89 49 0 39 1 2 1 0.954
90 49 1 40 3 1 2 0.895
91 49 1 41 2 2 2 1.522
92 49 1 42 3 1 0 2.207
93 49 1 43 1 2 1 2.503
94 49 1 44 2 1 0 0.773
95 49 1 45 1 1 0 1.697
96 49 1 46 1 2 1 1.547
97 49 1 47 3 2 1 2.458
98 49 1 48 3 1 0 0.922
99 49 1 49 1 2 1 2.448
100 49 1 50 3 1 2 7.68
101 50 0 0 2 2 1 0.954
102 50 0 1 3 1 1 1.023
103 50 0 2 1 1 2 1.342
104 50 0 3 3 3 2 1.905
105 50 0 4 1 2 1 1.381
106 50 0 5 3 3 0 1.162
107 50 0 6 2 2 2 3.316
108 50 0 7 2 3 0 1.024
109 50 0 8 1 3 2 1.936
110 50 0 9 2 1 0 1.122
111 50 0 10 2 1 1 1.201
112 50 0 11 2 1 0 1.561
113 50 0 12 2 2 1 1.705
114 50 0 13 1 1 1 1.955
115 50 0 14 1 2 1 1.104
116 50 0 15 2 1 0 2.64
117 50 0 16 1 1 1 1.817
118 50 0 17 3 3 2 0.924
119 50 0 18 2 2 1 1.106
120 50 0 19 3 3 2 0.896
121 50 0 20 2 3 1 1.175
122 50 0 21 3 2 1 1.073
123 50 0 22 1 3 2 1.233
124 50 0 23 3 3 0 2.301
125 50 0 24 3 2 1 2.349
126 50 0 25 2 3 2 1.408
127 50 0 26 1 2 1 0.79
128 50 0 27 1 3 1 1.393
129 50 0 28 2 3 2 1.026
130 50 0 29 3 3 0 1.317
131 50 0 30 2 3 1 2.729
132 50 0 31 2 1 0 1.211
133 50 0 32 1 3 0 1.095
134 50 0 33 1 3 1 8.339
135 50 0 34 3 2 1 1.9
136 50 0 35 1 1 1 2.959
137 50 0 36 1 2 1 0.841
138 50 0 37 1 3 2 2.21
139 50 0 38 2 2 1 1.242
140 50 0 39 2 2 1 1.382
141 50 1 40 3 1 1 1.674
142 50 1 41 1 1 2 2.113
143 50 1 42 2 1 0 1.657
144 50 1 43 2 1 1 1.333
145 50 1 44 2 1 0 2.329
146 50 1 45 1 3 2 1.405
147 50 1 46 1 3 2 2.099
148 50 1 47 2 1 1 1.711
149 50 1 48 3 2 2 1.797
150 50 1 49 2 1 0 2.088
151 50 1 50 3 2 1 1.157
152 50 1 51 2 2 1 1.747
153 50 1 52 2 2 1 1.179
154 50 1 53 2 2 0 1.544
155 50 1 54 2 1 0 0.916
156 50 1 55 3 3 2 1.019
157 50 1 56 3 2 1 1.421
158 50 1 57 3 3 2 0.898
159 50 1 58 1 3 2 1.162
160 50 1 59 2 2 0 2.808
161 50 1 60 1 3 2 0.854
162 50 1 61 2 1 0 2.223
163 50 1 62 3 2 1 48.871
164 50 1 63 3 3 2 0.921
165 50 1 64 1 1 1 1.471
166 50 1 65 2 3 2 1.789
167 50 1 66 3 2 1 1.029
168 50 1 67 1 2 1 1.176
169 50 1 68 1 3 2 0.757
170 50 1 69 3 1 0 1.329
171 50 1 70 2 1 2 1.337
172 50 1 71 3 2 1 1.069
173 50 1 72 1 2 2 1.486
174 50 1 73 3 3 2 1.211
175 50 1 74 2 3 2 16.6
176 50 1 75 3 2 1 1.375
177 50 1 76 2 3 2 1.334
178 50 1 77 1 3 2 2.142
179 50 1 78 3 3 2 1.065
180 50 1 79 1 3 2 0.858
181 50 2 80 2 2 1 0.961
182 50 2 81 2 3 2 1.862
183 50 2 82 1 3 2 18.203
184 50 2 83 3 2 1 3.974
185 50 2 84 1 1 0 15.471
186 50 2 85 2 1 1 0.86
187 50 2 86 1 2 1 2.753
188 50 2 87 2 2 1 1.222
189 50 2 88 2 3 2 0.817
190 50 2 89 3 3 2 8.044
191 50 2 90 2 1 2 4.067
192 50 2 91 2 3 2 1.381
193 50 2 92 3 3 2 1.659
194 50 2 93 1 3 2 1.287
195 50 2 94 1 3 1 0.896
196 50 2 95 3 1 1 1.187
197 50 2 96 2 1 0 9.42
198 50 2 97 1 3 2 1.09
199 50 2 98 1 3 1 2.098
200 50 2 99 3 1 1 16.731
201 50 2 100 1 3 2 1.751
202 50 2 101 1 3 0 0.944
203 51 0 0 3 1 2 1.853
204 51 0 1 1 3 2 1.326
205 51 0 2 1 1 0 1.347
206 51 0 3 3 2 1 1.083
207 51 0 4 3 1 2 1.595
208 51 0 5 1 3 2 0.774
209 51 0 6 2 3 2 0.977
210 51 0 7 3 3 2 0.806
211 51 0 8 3 3 2 0.848
212 51 0 9 2 3 2 0.841
213 51 0 10 3 3 2 0.77
214 51 0 11 2 1 1 1.454
215 51 0 12 2 1 0 0.877
216 51 0 13 2 3 2 1.557
217 51 0 14 2 3 2 0.725
218 51 0 15 1 1 0 2.594
219 51 0 16 2 1 1 1.901
220 51 0 17 3 3 2 0.972
221 51 0 18 2 1 0 9.121
222 51 0 19 3 2 1 0.994
223 51 0 20 2 3 2 1.542
224 51 0 21 1 2 1 1.142
225 51 0 22 1 3 2 1.637
226 51 0 23 1 1 1 4.337
227 51 0 24 1 3 2 1.098
228 51 0 25 1 3 2 0.922
229 51 0 26 3 2 1 1.248
230 51 0 27 3 3 2 1.019
231 51 0 28 3 3 2 2.174
232 51 0 29 3 2 1 0.888
233 51 0 30 1 1 1 2.879
234 51 0 31 1 3 2 3.083
235 51 0 32 3 2 1 1.045
236 51 0 33 1 2 1 3.495
237 51 0 34 1 1 0 1.537
238 51 0 35 1 1 0 0.833
239 51 0 36 3 2 1 1.019
240 51 0 37 1 1 0 1.182
241 51 0 38 2 2 1 1.099
242 51 0 39 1 1 0 3.323
243 51 1 40 2 2 1 1.233
244 51 1 41 2 2 1 0.716
245 51 1 42 3 1 0 1.643
246 51 1 43 3 1 0 31.32
247 51 1 44 3 3 2 1.389
248 51 1 45 1 3 2 0.723
249 51 1 46 3 3 2 0.737
250 51 1 47 3 2 1 0.83
251 51 1 48 2 2 1 1.208
252 51 1 49 2 2 1 0.564
253 51 1 50 2 2 1 0.471
254 51 1 51 1 3 2 1.134
255 51 1 52 1 3 2 0.813
256 51 1 53 1 3 2 0.743
257 51 1 54 1 2 1 0.836
258 51 1 55 3 2 1 0.75
259 51 1 56 3 2 1 0.506
260 51 1 57 2 1 0 1.343
261 51 1 58 2 3 2 0.918
262 51 1 59 3 3 2 0.625
263 53 0 0 1 2 1 3.003
264 53 0 1 1 1 0 1.127
265 53 0 2 1 1 0 1.694
266 53 0 3 2 2 1 1.313
267 53 0 4 3 2 1 0.81
268 53 0 5 2 2 1 0.717
269 53 0 6 3 3 2 0.883
270 53 0 7 2 2 1 0.658
271 53 0 8 2 3 2 1.074
272 53 0 9 2 1 0 0.787
273 53 0 10 1 2 1 1.255
274 53 0 11 2 1 0 1.145
275 53 0 12 2 1 0 0.6
276 53 0 13 3 2 1 0.913
277 53 0 14 1 2 1 1.296
278 53 0 15 1 3 2 1.017
279 51 1 60 1 1 0 60.818
280 53 0 16 2 1 0 1.908
281 53 0 17 1 3 2 1.103
282 51 1 61 2 2 1 4.295
283 51 1 62 2 3 2 0.837
284 53 0 18 3 1 0 3.671
285 53 0 19 1 1 0 0.675
286 53 0 20 2 1 0 1.179
287 51 1 63 1 1 1 1.278
288 53 0 21 1 3 2 0.96
289 51 1 64 3 3 2 1.076
290 53 0 22 3 2 1 0.805
291 53 0 23 3 2 0 0.928
292 53 0 24 1 3 2 3.274
293 53 0 25 3 3 2 0.749
294 53 0 26 3 3 2 0.946
295 53 0 27 2 2 1 0.751
296 53 0 28 1 2 1 1.089
297 51 1 65 3 2 1 14.917
298 53 0 29 3 3 2 1.321
299 53 0 30 3 2 1 0.697
300 51 1 66 1 1 0 2.198
301 53 0 31 3 1 0 1.04
302 51 1 67 2 1 1 1.343
303 53 0 32 2 3 2 1.794
304 53 0 33 2 3 2 0.664
305 53 0 34 2 3 2 0.88
306 51 1 68 2 1 2 2.162
307 53 0 35 1 1 0 1.44
308 51 1 69 2 3 2 1.288
309 53 0 36 3 1 1 2.252
310 51 1 70 3 1 1 1.233
311 53 0 37 1 3 2 0.887
312 53 0 38 3 2 1 0.719
313 51 1 71 3 1 0 2.488
314 51 1 72 2 3 2 1.878
315 51 1 73 2 1 1 1.226
316 53 0 39 2 3 0 4.997
317 51 1 74 1 3 2 2.962
318 53 1 40 1 1 1 1.656
319 53 1 41 2 3 2 1.2
320 53 1 42 1 3 2 0.829
321 53 1 43 3 1 1 2.055
322 53 1 44 3 2 1 0.905
323 53 1 45 1 3 2 1.728
324 53 1 46 3 1 1 1.658
325 53 1 47 2 2 1 1.29
326 53 1 48 1 1 0 2.731
327 53 1 49 2 3 2 2.521
328 53 1 50 2 2 1 1.158
329 53 1 51 2 1 0 1.58
330 53 1 52 1 3 2 1.371
331 53 1 53 3 2 1 0.898
332 53 1 54 3 1 0 1.041
333 53 1 55 1 3 2 1.643
334 53 1 56 3 1 1 1.384
335 53 1 57 2 2 1 0.594
336 53 1 58 2 1 2 1.756
337 53 1 59 2 1 1 1.72
338 53 1 60 3 3 2 1.094
339 53 1 61 1 3 2 1.638
340 53 1 62 3 3 2 1.235
341 53 1 63 2 1 1 3.59
342 53 1 64 2 2 1 0.785
343 53 1 65 3 1 2 2.74
344 53 1 66 2 2 1 0.709
345 53 1 67 3 2 1 0.827
346 53 1 68 1 3 2 1.413
347 53 1 69 3 1 0 4.018
348 53 1 70 2 1 2 5.889
349 53 1 71 3 1 0 1.601
350 53 1 72 1 1 0 5.543
351 53 1 73 2 2 1 0.672
352 53 1 74 1 2 1 1.504
353 53 1 75 1 3 0 3.377
354 53 1 76 2 3 2 2.508
355 53 1 77 2 3 0 2.641
356 53 1 78 3 3 2 5.254
357 53 1 79 1 3 1 1.985
358 53 2 80 1 3 1 1.35
359 53 2 81 1 3 2 2.089
360 53 2 82 3 3 1 3.606
361 53 2 83 3 1 1 2.608
362 53 2 84 1 1 0 0.882
363 53 2 85 3 2 1 0.714
364 53 2 86 3 3 2 6.248
365 53 2 87 2 2 1 0.607
366 53 2 88 3 3 2 0.753
367 53 2 89 2 2 1 0.693
368 53 2 90 1 2 1 1.204
369 53 2 91 2 2 1 0.56
370 53 2 92 1 1 0 2.836
371 53 2 93 3 2 1 0.686
372 53 2 94 2 1 0 2.604
373 53 2 95 2 1 0 1.191
374 53 2 96 2 3 2 1.156
375 53 2 97 1 3 2 2.018
376 53 2 98 2 3 0 2.185
377 53 2 99 1 2 1 0.63
378 53 2 100 3 1 0 2.543
379 53 2 101 2 1 0 3.131
380 53 2 102 1 2 1 1.019
381 53 2 103 2 3 2 1.038
382 53 2 104 1 3 2 0.792
383 53 2 105 2 2 1 0.587
384 53 2 106 3 1 0 1.389
385 53 2 107 3 1 0 0.779
386 53 2 108 2 1 0 3.478
387 53 2 109 3 2 1 0.697
388 53 2 110 3 3 2 1.408
389 53 2 111 3 1 0 3.069
390 53 2 112 3 2 1 0.663
391 53 2 113 3 2 1 0.551
392 53 2 114 1 3 2 2.715
393 53 2 115 2 3 1 2.889
394 53 2 116 1 2 1 0.805
395 53 2 117 2 3 0 3.879
396 53 2 118 2 2 1 0.688
397 53 2 119 2 2 1 0.438
398 53 3 120 1 2 1 0.698
399 53 3 121 3 2 1 0.504
400 53 3 122 2 3 2 2.534
401 53 3 123 2 2 1 0.522
402 53 3 124 2 1 0 1.335
403 53 3 125 1 2 1 0.662
404 53 3 126 2 2 1 0.758
405 53 3 127 1 2 1 0.515
406 53 3 128 2 3 2 4.136
407 53 3 129 1 2 1 0.564
408 53 3 130 2 3 0 5.095
409 53 3 131 1 1 0 1.94
410 53 3 132 1 2 1 0.774
411 53 3 133 3 1 0 1.45
412 53 3 134 1 3 2 1.574
413 53 3 135 2 3 2 2.565
414 53 3 136 1 3 2 1.992
415 53 3 137 2 3 2 1.353
416 53 3 138 3 2 1 0.639
417 53 3 139 1 2 1 0.504
418 53 3 140 3 3 2 1.798
419 53 3 141 3 3 2 1.821
420 53 3 142 1 1 0 0.739
421 53 3 143 1 2 1 0.801
422 53 3 144 2 2 1 1.068
423 53 3 145 1 1 0 1.182
424 53 3 146 2 1 0 6.483
425 53 3 147 1 1 0 2.026
426 53 3 148 1 2 1 0.657
427 53 3 149 1 1 0 0.825
428 54 0 0 1 2 1 4.984
429 53 3 150 1 2 1 0.651
430 53 3 151 1 3 2 1.075
431 53 3 152 2 3 2 0.788
432 54 0 1 3 2 0 2.108
433 53 3 153 3 1 0 1.199
434 54 0 2 3 1 0 1.924
435 53 3 154 3 3 2 0.852
436 54 0 3 1 3 2 0.775
437 54 0 4 3 3 2 0.675
438 53 3 155 3 3 2 2.141
439 54 0 5 2 3 2 0.658
440 53 3 156 3 2 1 0.504
441 54 0 6 3 3 2 0.434
442 54 0 7 2 3 2 0.569
443 53 3 157 1 1 0 1.669
444 54 0 8 1 2 1 0.621
445 53 3 158 2 2 1 0.601
446 54 0 9 3 3 2 0.718
447 53 3 159 3 3 2 1.115
448 54 0 10 1 3 2 1.468
449 54 0 11 3 3 2 0.623
450 54 0 12 2 1 0 0.624
451 53 4 160 1 1 0 1.551
452 54 0 13 1 2 1 0.817
453 53 4 161 2 2 1 0.566
454 53 4 162 2 2 1 0.529
455 54 0 14 1 1 0 0.907
456 53 4 163 1 1 0 1.742
457 54 0 15 2 3 2 2.306
458 53 4 164 3 3 2 1.207
459 54 0 16 1 1 0 0.951
460 54 0 17 1 3 2 0.685
461 54 0 18 2 2 1 0.604
462 53 4 165 3 3 1 2.259
463 54 0 19 2 1 0 0.845
464 54 0 20 2 1 0 0.439
465 53 4 166 3 3 2 1.646
466 54 0 21 2 2 0 0.238
467 53 4 167 2 1 1 1.018
468 53 4 168 1 1 1 3.481
469 53 4 169 3 3 2 1.04
470 53 4 170 3 2 1 0.728
471 53 4 171 1 3 2 1.214
472 53 4 172 1 3 0 2.202
473 53 4 173 3 1 2 1.991
474 53 4 174 1 1 0 2.491
475 53 4 175 3 3 2 1.121
476 53 4 176 1 3 2 1.136
477 53 4 177 1 1 0 2.255
478 53 4 178 2 1 0 2.006
479 53 4 179 1 2 1 0.654
480 53 4 180 2 2 1 0.765
481 53 4 181 2 1 0 1.063
482 53 4 182 3 1 0 0.841
483 53 4 183 1 2 1 0.634
484 53 4 184 1 1 0 2.579
485 53 4 185 2 1 0 1.398
486 53 4 186 3 1 0 0.858
487 53 4 187 2 3 2 1.21
488 53 4 188 3 3 2 1.039
489 53 4 189 3 2 1 0.697
490 53 4 190 1 2 2 1.24
491 53 4 191 3 3 2 0.79
492 53 4 192 1 3 2 0.961
493 53 4 193 3 3 2 1.31
494 53 4 194 2 3 2 1.103
495 53 4 195 1 1 2 2.31
496 53 4 196 1 2 1 0.639
497 53 4 197 3 3 2 0.839
498 53 4 198 3 2 1 0.673
499 53 4 199 1 2 1 1.056
500 53 5 200 3 1 0 1.816
501 53 5 201 3 2 1 0.686
502 53 5 202 2 3 2 1.045
503 53 5 203 2 2 1 0.647
504 53 5 204 2 1 0 1.183
505 53 5 205 2 2 1 0.564
506 53 5 206 3 2 1 1.303
507 53 5 207 3 2 1 0.8
508 53 5 208 2 1 0 1.707
509 53 5 209 3 3 2 1.853
510 53 5 210 3 1 0 1.954
511 53 5 211 3 3 2 2.227
512 53 5 212 1 2 1 0.62
513 53 5 213 1 2 1 2.461
514 53 5 214 1 2 1 0.476
515 53 5 215 2 3 2 0.803
516 53 5 216 1 3 2 1.189
517 53 5 217 1 2 1 0.626
518 53 5 218 3 3 2 0.795
519 53 5 219 2 3 2 1.518
520 53 5 220 1 1 0 1.431
521 53 5 221 2 2 1 0.635
522 53 5 222 2 3 2 2.668
523 53 5 223 1 1 0 1.292
524 53 5 224 1 3 2 1.245
525 53 5 225 2 3 2 1.184
526 53 5 226 1 2 1 0.773
527 53 5 227 1 1 0 0.984
528 53 5 228 3 2 1 1.476
529 53 5 229 2 1 0 0.991
530 53 5 230 3 2 1 1.155
531 53 5 231 1 3 2 1.137
532 53 5 232 2 3 2 3.887
533 53 5 233 2 3 2 0.771
534 53 5 234 3 1 0 1.519
535 53 5 235 1 2 1 0.648
536 53 5 236 3 2 1 0.712
537 53 5 237 1 3 2 1.366
538 53 5 238 1 3 2 1.041
539 53 5 239 3 3 0 2.283
540 53 6 240 1 1 0 1.029
541 53 6 241 3 2 1 0.6
542 53 6 242 2 1 0 1.57
543 53 6 243 1 2 2 0.889
544 53 6 244 1 3 2 1.205
545 53 6 245 1 3 2 1.497
546 53 6 246 2 2 1 0.627
547 53 6 247 2 1 0 0.916
548 53 6 248 3 3 2 1.203
549 53 6 249 3 1 0 3.279
550 53 6 250 3 3 2 0.873
551 53 6 251 3 2 1 1.082
552 53 6 252 3 2 1 0.634
553 53 6 253 2 2 1 0.507
554 53 6 254 1 3 2 1.168
555 53 6 255 1 3 2 1.182
556 53 6 256 2 2 1 0.652
557 53 6 257 2 1 0 0.996
558 53 6 258 1 2 1 0.808
559 53 6 259 2 3 2 0.954
560 53 6 260 1 3 2 2.136
561 53 6 261 2 3 2 1.29
562 53 6 262 1 1 0 0.747
563 53 6 263 1 3 0 0.472
564 53 6 264 2 1 0 0.842
565 53 6 265 3 2 1 2.581
566 53 6 266 2 2 1 0.56
567 53 6 267 3 1 0 1.459
568 53 6 268 3 2 1 0.798
569 53 6 269 1 3 2 1.409
570 53 6 270 3 3 2 1.39
571 53 6 271 3 2 1 0.732
572 53 6 272 2 1 0 0.713
573 53 6 273 2 3 2 1.431
574 53 6 274 3 3 2 0.947
575 53 6 275 1 2 1 0.785
576 53 6 276 1 3 0 1.829
577 53 6 277 2 3 2 5.45
578 53 6 278 3 3 0 1.358
579 53 6 279 2 3 2 1.696
580 53 7 280 2 3 0 6.814
581 53 7 281 2 1 1 2.005
582 53 7 282 3 3 0 2.288
583 53 7 283 3 2 1 0.689
584 53 7 284 3 1 0 1.344
585 53 7 285 3 1 0 1.422
586 53 7 286 2 1 2 2.019
587 53 7 287 3 3 2 1.278
588 53 7 288 2 1 0 2.024
589 53 7 289 1 2 1 0.711
590 53 7 290 1 2 1 0.829
591 53 7 291 1 3 2 2.503
592 53 7 292 1 1 0 1.301
593 53 7 293 1 1 0 0.574
594 53 7 294 2 1 0 3.201
595 53 7 295 3 1 0 2.286
596 53 7 296 3 2 1 0.979
597 53 7 297 3 3 2 4.184
598 53 7 298 2 3 2 1.41
599 53 7 299 2 1 0 1.775
600 53 7 300 2 1 0 1.183
601 53 7 301 3 2 1 0.852
602 53 7 302 2 1 0 7.308
603 53 7 303 3 1 1 1.006
604 53 7 304 3 2 1 0.941
605 53 7 305 1 1 0 2.283
606 53 7 306 1 1 2 2.313
607 53 7 307 3 1 0 4.241
608 53 7 308 3 1 0 1.393
609 53 7 309 3 1 0 1.638
610 53 7 310 3 2 1 0.827
611 53 7 311 1 1 0 1.973
612 53 7 312 1 1 1 5.102
613 53 7 313 1 2 1 0.787
614 53 7 314 3 3 2 1.15
615 53 7 315 2 2 1 0.708
616 53 7 316 1 3 2 1.626
617 53 7 317 2 1 0 2.704
618 53 7 318 2 3 2 1.294
619 53 7 319 3 2 1 1.016
620 55 0 0 1 2 1 1.028
621 55 0 1 3 2 1 3.646
622 55 0 2 3 2 1 1.155
623 55 0 3 2 1 0 1.105
624 55 0 4 2 3 2 0.785
625 55 0 5 2 3 2 1.004
626 55 0 6 1 3 2 0.808
627 55 0 7 1 1 0 0.818
628 55 0 8 1 1 0 0.557
629 55 0 9 3 2 1 0.728
630 55 0 10 3 2 1 0.558
631 55 0 11 1 3 2 1.161
632 55 0 12 2 3 2 1.847
633 55 0 13 2 2 1 0.716
634 55 0 14 3 1 0 1.138
635 55 0 15 2 3 2 0.761
636 55 0 16 3 3 2 0.773
637 55 0 17 3 3 2 0.433
638 55 0 18 3 1 0 0.761
639 55 0 19 2 2 1 0.445
640 55 0 20 3 3 2 1.005
641 55 0 21 1 2 1 0.776
642 55 0 22 3 3 2 1.124
643 55 0 23 1 1 0 0.587
644 55 0 24 3 1 0 0.75
645 55 0 25 3 2 1 0.714
646 55 0 26 2 1 0 0.728
647 55 0 27 2 3 2 0.805
648 55 0 28 1 2 1 1.304
649 55 0 29 2 2 1 0.713
650 55 0 30 2 3 2 0.727
651 55 0 31 1 1 0 0.58
652 55 0 32 1 3 2 1.311
653 55 0 33 1 1 0 0.656
654 55 0 34 3 2 1 0.672
655 55 0 35 1 3 0 1.551
656 55 0 36 3 1 0 1.291
657 55 0 37 3 2 1 0.636
658 55 0 38 1 1 0 0.636
659 55 0 39 3 2 1 0.525
660 55 1 40 2 2 1 2.248
661 55 1 41 3 3 2 0.942
662 55 1 42 2 2 1 0.516
663 55 1 43 1 2 1 1.105
664 55 1 44 1 3 2 1.025
665 55 1 45 3 3 2 1.292
666 55 1 46 2 3 2 0.933
667 55 1 47 2 2 1 0.571
668 55 1 48 3 3 2 0.75
669 55 1 49 3 2 1 0.635
670 55 1 50 2 3 2 0.723
671 55 1 51 2 1 0 0.673
672 55 1 52 1 1 0 0.6
673 55 1 53 3 2 1 0.916
674 55 1 54 3 2 1 0.867
675 55 1 55 2 1 0 0.779
676 55 1 56 3 1 0 0.991
677 55 1 57 1 2 1 0.689
678 55 1 58 3 2 1 0.712
679 55 1 59 1 3 2 0.87
680 55 1 60 3 1 0 0.814
681 55 1 61 1 3 2 0.839
682 55 1 62 1 1 0 2.105
683 55 1 63 1 1 0 0.629
684 55 1 64 2 2 1 0.942
685 55 1 65 1 3 2 0.951
686 55 1 66 2 2 1 0.612
687 55 1 67 2 1 0 0.653
688 55 1 68 3 2 1 1.557
689 55 1 69 1 3 2 0.789
690 55 1 70 3 3 2 0.536
691 55 1 71 3 1 0 0.532
692 55 1 72 1 2 1 0.577
693 55 1 73 1 2 1 0.852
694 55 1 74 3 1 0 1.348
695 55 1 75 2 1 0 0.587
696 55 1 76 1 3 2 0.701
697 55 1 77 2 1 0 1.163
698 55 1 78 3 1 0 6.727
699 55 1 79 2 1 0 0.781
700 55 2 80 3 3 2 1.314
701 55 2 81 3 2 1 0.946
702 56 0 0 3 2 1 1.985
703 56 0 1 3 3 2 0.881
704 56 0 2 2 1 0 0.698
705 56 0 3 3 3 2 0.96
706 56 0 4 3 2 1 0.813
707 56 0 5 3 1 0 0.728
708 56 0 6 3 2 1 0.981
709 56 0 7 1 3 2 1.138
710 56 0 8 1 2 1 1.097
711 56 0 9 2 2 0 1.433
712 56 0 10 3 3 2 1.001
713 56 0 11 2 2 0 11.06
714 56 0 12 3 3 2 0.764
715 56 0 13 3 1 2 0.576
716 56 0 14 2 1 0 1.222
717 56 0 15 2 2 1 0.746
718 56 0 16 3 1 1 1.063
719 56 0 17 3 2 1 0.884
720 56 0 18 1 2 1 0.724
721 56 0 19 3 3 2 0.674
722 56 0 20 3 1 0 0.609
723 56 0 21 2 3 2 3.459
724 56 0 22 1 2 1 1.015
725 56 0 23 2 2 1 0.938
726 56 0 24 3 2 1 0.784
727 56 0 25 1 3 2 1.532
728 56 0 26 3 3 0 1.428
729 56 0 27 2 2 1 1.141
730 56 0 28 2 2 1 2.427
731 56 0 29 3 2 1 0.628
732 56 0 30 1 3 2 1.509
733 56 0 31 3 2 2 2.078
734 56 0 32 1 3 2 1.671
735 56 0 33 2 2 1 2.955
736 57 0 0 3 2 1 0.802
737 57 0 1 3 3 2 1.013
738 57 0 2 3 3 2 0.656
739 57 0 3 3 2 1 0.76
740 57 0 4 1 2 1 0.996
741 57 0 5 1 3 2 0.848
742 57 0 6 2 1 0 1.457
743 57 0 7 2 1 0 0.501
744 57 0 8 2 2 1 0.81
745 57 0 9 3 1 0 1.3
746 57 0 10 3 2 1 3.437
747 57 0 11 2 1 0 7.162
748 57 0 12 1 3 2 1.881
749 57 0 13 2 3 2 1.173
750 57 0 14 1 2 1 0.85
751 57 0 15 3 1 0 1.219
752 57 0 16 3 2 1 0.806
753 57 0 17 1 2 1 0.769
754 57 0 18 2 3 2 0.909
755 57 0 19 1 3 2 0.572
756 57 0 20 2 1 0 2.83
757 57 0 21 3 3 2 0.776
758 57 0 22 2 1 1 1.172
759 57 0 23 2 3 2 0.989
760 57 0 24 1 3 2 0.745
761 57 0 25 3 2 1 0.782
762 57 0 26 1 2 1 1.082
763 57 0 27 1 2 1 1.235
764 57 0 28 1 1 0 2.862
765 57 0 29 3 2 2 79.528
766 57 0 30 2 3 2 1.498
767 57 0 31 2 3 2 0.764
768 57 0 32 1 3 2 0.584
769 57 0 33 2 1 2 0.722
770 57 0 34 3 2 1 1.387
771 57 0 35 3 2 1 0.521
772 57 0 36 1 1 0 0.958
773 57 0 37 2 2 1 67.316
774 57 0 38 3 1 2 1.224
775 57 0 39 1 3 2 1.688
776 57 1 40 1 1 0 3.481
777 57 1 41 3 3 2 1.204
778 57 1 42 1 1 2 1.04
779 57 1 43 2 2 1 0.95
780 58 0 0 3 3 2 1.678
781 58 0 1 3 1 0 1.562
782 58 0 2 3 3 2 4.442
783 58 0 3 2 3 2 1.954
784 58 0 4 2 1 0 1.732
785 58 0 5 2 2 1 1.005
786 58 0 6 1 3 2 1.904
787 58 0 7 3 1 0 2.196
788 58 0 8 2 3 2 1.549
789 58 0 9 1 2 1 1.501
790 58 0 10 3 1 0 1.071
791 58 0 11 2 3 2 1.184
792 58 0 12 1 3 2 1.069
793 58 0 13 3 2 1 3.838
794 58 0 14 1 3 2 1.117
795 58 0 15 2 1 0 1.02
796 58 0 16 3 1 0 1.438
797 58 0 17 2 1 0 0.735
798 58 0 18 2 3 2 1.084
799 58 0 19 1 3 0 1.197
800 58 0 20 2 1 0 1.925
801 58 0 21 1 3 2 1.304
802 58 0 22 2 1 0 1.329
803 58 0 23 3 1 0 0.873
804 58 0 24 3 2 1 0.865
805 58 0 25 3 2 1 0.634
806 58 0 26 1 1 0 0.795
807 58 0 27 3 2 1 1.094
808 58 0 28 3 1 0 0.806
809 58 0 29 3 2 1 5.777
810 58 0 30 1 2 1 0.679
811 58 0 31 1 1 0 1.91
812 58 0 32 2 2 1 0.985
813 58 0 33 2 2 1 1.773
814 58 0 34 2 3 0 0.837
815 58 0 35 2 3 2 2.747
816 58 0 36 3 2 1 0.976
817 58 0 37 3 2 1 0.692
818 58 0 38 1 1 0 0.707
819 58 0 39 3 1 0 0.913
820 58 1 40 1 3 2 1.077
821 58 1 41 1 2 1 0.822
822 58 1 42 2 1 0 0.848
823 58 1 43 2 2 1 0.842
824 58 1 44 1 1 0 0.675
825 58 1 45 1 1 0 1.074
826 58 1 46 3 1 0 0.851
827 58 1 47 2 2 1 1.164
828 58 1 48 1 1 0 0.714
829 58 1 49 3 1 0 0.744
830 58 1 50 3 3 2 0.917
831 58 1 51 2 1 0 1.259
832 58 1 52 1 1 0 1.718
833 58 1 53 1 2 1 0.864
834 58 1 54 2 1 0 2.808
835 58 1 55 1 2 1 0.699
836 58 1 56 2 2 1 1.241
837 58 1 57 3 1 0 0.756
838 58 1 58 3 2 1 0.753
839 58 1 59 2 2 1 1.485
840 58 1 60 2 2 1 1.999
841 58 1 61 2 3 2 1.615
842 58 1 62 2 3 0 0.988
843 58 1 63 1 2 1 1.148
844 58 1 64 1 1 0 3.61
845 58 1 65 3 3 2 1.088
846 58 1 66 3 2 1 0.96
847 58 1 67 3 3 2 0.901
848 58 1 68 1 1 0 0.717
849 58 1 69 3 1 0 2.874
850 58 1 70 3 2 1 1.035
851 58 1 71 3 2 1 0.909
852 58 1 72 3 2 1 1.316
853 58 1 73 3 3 2 1.644
854 58 1 74 3 2 1 0.793
855 58 1 75 1 1 0 1.291
856 58 1 76 2 2 1 0.901
857 58 1 77 2 2 1 1.58
858 58 1 78 3 3 2 1.994
859 58 1 79 2 3 0 1.338
860 58 2 80 3 2 1 1.109
861 58 2 81 2 2 1 0.501
862 58 2 82 1 2 1 0.539
863 58 2 83 3 1 0 1.167
864 58 2 84 3 1 0 0.62
865 58 2 85 2 1 0 0.558
866 58 2 86 1 2 1 0.961
867 58 2 87 2 3 2 1.526
868 58 2 88 3 2 1 0.919
869 58 2 89 3 2 1 1.005
870 58 2 90 2 2 1 0.593
871 58 2 91 1 1 0 0.787
872 58 2 92 1 2 1 1.023
873 58 2 93 2 2 1 0.577
874 58 2 94 2 2 1 0.516
875 58 2 95 1 3 0 0.985
876 58 2 96 3 2 1 0.777
877 58 2 97 1 3 2 2.917
878 58 2 98 2 1 0 3.46
879 58 2 99 2 2 1 0.863
880 58 2 100 3 2 1 0.968
881 58 2 101 2 2 1 0.444
882 58 2 102 2 2 1 0.484
883 58 2 103 1 3 0 1.099
884 58 2 104 3 1 0 1.287
885 58 2 105 3 3 2 0.784
886 58 2 106 3 3 2 0.795
887 58 2 107 1 3 2 0.534
888 58 2 108 1 1 2 0.539
889 58 2 109 2 2 1 0.955
890 58 2 110 3 1 0 1.024
891 58 2 111 2 3 2 1.218
892 58 2 112 2 1 0 2.142
893 58 2 113 3 1 0 2.392
894 58 2 114 1 3 2 1.051
895 58 2 115 1 1 0 0.749
896 58 2 116 2 1 0 0.666
897 58 2 117 2 3 0 0.489
898 58 2 118 2 3 0 0.908
899 58 2 119 2 1 0 1.006
900 58 3 120 2 2 1 1.052
901 58 3 121 1 3 2 6.43
902 58 3 122 2 1 0 2.495
903 58 3 123 1 1 0 0.542
904 58 3 124 1 2 1 0.818
905 58 3 125 1 3 2 5.388
906 58 3 126 3 3 2 0.563
907 58 3 127 2 1 0 1.174
908 58 3 128 2 2 1 0.852
909 58 3 129 1 1 0 1.613
910 58 3 130 3 1 0 0.554
911 58 3 131 1 3 2 1.29
912 58 3 132 3 3 2 0.595
913 58 3 133 1 2 1 0.997
914 58 3 134 3 3 2 1.161
915 58 3 135 1 3 2 1.271
916 58 3 136 2 1 0 1.041
917 58 3 137 3 2 1 0.931
918 58 3 138 3 2 1 0.842
919 58 3 139 3 3 2 1.347
920 58 3 140 3 2 1 0.922
921 58 3 141 3 2 1 0.833
922 58 3 142 2 3 2 1.162
923 58 3 143 2 2 1 0.68
924 58 3 144 3 1 0 0.935
925 58 3 145 1 1 0 0.686
926 58 3 146 1 2 1 0.829
927 58 3 147 2 2 1 0.695
928 58 3 148 3 2 1 0.678
929 58 3 149 2 1 0 0.709
930 58 3 150 2 1 0 2.147
931 58 3 151 1 1 0 0.573
932 58 3 152 1 3 2 0.833
933 58 3 153 2 1 0 1.035
934 58 3 154 3 1 0 0.974
935 58 3 155 1 3 2 1.394
936 58 3 156 2 3 2 1.048
937 58 3 157 3 2 1 0.842
938 58 3 158 2 3 0 2.771
939 58 3 159 3 1 0 1.091
940 58 4 160 2 1 0 1.67
941 58 4 161 2 3 2 1.154
942 58 4 162 2 2 1 0.752
943 58 4 163 3 2 1 1.165
944 58 4 164 3 1 0 1.035
945 58 4 165 2 1 0 1.373
946 58 4 166 3 2 1 0.899
947 58 4 167 1 1 0 0.683
948 58 4 168 1 3 2 1.114
949 58 4 169 2 1 0 1.05
950 58 4 170 3 3 2 1.115
951 58 4 171 1 3 2 0.683
952 58 4 172 1 3 2 0.57
953 58 4 173 2 2 1 0.667
954 58 4 174 2 2 1 0.395
955 58 4 175 3 1 0 0.884
956 58 4 176 2 2 1 1.5
957 58 4 177 1 3 0 2.286
958 58 4 178 1 3 0 3.183
959 58 4 179 2 1 0 1.248
960 58 4 180 2 2 1 1.195
961 58 4 181 1 1 0 1.848
962 58 4 182 2 2 1 0.765
963 58 4 183 2 3 2 0.825
964 58 4 184 1 1 0 2.178
965 58 4 185 1 2 1 0.859
966 58 4 186 2 3 2 0.98
967 58 4 187 2 2 1 0.776
968 58 4 188 1 1 0 0.74
969 58 4 189 1 1 0 0.705
970 58 4 190 2 1 0 1.247
971 58 4 191 2 1 0 1.881
972 58 4 192 2 2 1 0.973
973 58 4 193 2 2 1 1.266
974 58 4 194 1 2 1 2.043
975 58 4 195 2 1 2 1.673
976 58 4 196 1 3 2 4.064
977 58 4 197 3 1 0 0.934
978 58 4 198 3 3 2 1.02
979 58 4 199 2 1 0 0.847
980 58 5 200 3 1 0 1.206
981 58 5 201 1 2 1 0.846
982 58 5 202 2 1 0 0.903
983 58 5 203 2 3 2 1.198
984 58 5 204 2 3 2 1.05
985 58 5 205 3 3 2 0.636
986 58 5 206 3 3 2 0.476
987 58 5 207 2 3 2 0.499
988 58 5 208 2 2 1 0.872
989 58 5 209 2 1 0 0.833
990 58 5 210 3 2 1 0.794
991 58 5 211 2 1 0 8.214
992 58 5 212 2 3 2 1.159
993 58 5 213 3 3 2 0.693
994 58 5 214 3 2 1 0.595
995 58 5 215 2 2 1 0.773
996 58 5 216 3 1 0 0.753
997 58 5 217 1 2 1 1.197
998 58 5 218 2 2 1 0.762
999 58 5 219 3 2 1 1.302
1000 58 5 220 3 2 1 0.495
1001 58 5 221 1 2 1 0.997
1002 58 5 222 1 3 2 1.079
1003 58 5 223 2 1 0 1.384
1004 58 5 224 1 1 0 0.813
1005 58 5 225 3 2 1 0.791
1006 58 5 226 3 1 0 1.282
1007 58 5 227 2 2 1 1.58
1008 58 5 228 3 3 2 1.114
1009 58 5 229 3 3 2 1.033
1010 58 5 230 1 3 2 0.46
1011 58 5 231 2 1 2 0.659
1012 58 5 232 3 3 2 0.943
1013 58 5 233 3 3 2 0.738
1014 58 5 234 1 1 0 1.118
1015 58 5 235 1 1 0 0.91
1016 58 5 236 3 3 2 1.381
1017 58 5 237 1 3 0 1.963
1018 58 5 238 2 3 2 2.392
1019 58 5 239 3 1 0 1.29
1020 58 6 240 2 3 2 1.177
1021 58 6 241 1 2 1 0.918
1022 58 6 242 2 2 1 0.557
1023 58 6 243 3 1 0 0.848
1024 58 6 244 3 3 2 1.194
1025 58 6 245 1 2 1 0.999
1026 58 6 246 2 1 0 0.811
1027 58 6 247 2 1 0 0.853
1028 58 6 248 3 3 2 0.894
1029 58 6 249 3 2 1 0.709
1030 58 6 250 1 3 2 1.203
1031 58 6 251 3 1 0 0.864
1032 58 6 252 3 2 1 0.841
1033 58 6 253 3 3 2 1.314
1034 58 6 254 3 1 0 0.891
1035 58 6 255 2 2 1 0.77
1036 58 6 256 1 1 0 0.766
1037 58 6 257 1 1 0 1.083
1038 58 6 258 3 2 1 0.78
1039 58 6 259 2 2 1 0.551
1040 58 6 260 2 3 2 1.003
1041 58 6 261 2 2 1 0.83
1042 58 6 262 3 3 2 0.872
1043 58 6 263 1 3 2 1.872
1044 58 6 264 1 1 0 0.741
1045 58 6 265 3 2 1 0.77
1046 58 6 266 3 3 2 1.885
1047 58 6 267 1 2 1 0.705
1048 58 6 268 1 1 0 1.6
1049 58 6 269 2 1 0 0.606
1050 58 6 270 3 2 1 0.672
1051 58 6 271 3 1 0 0.863
1052 58 6 272 2 2 1 0.679
1053 58 6 273 1 3 2 1.462
1054 58 6 274 1 1 0 0.938
1055 58 6 275 2 1 0 1.663
1056 58 6 276 2 1 0 0.859
1057 58 6 277 2 1 0 0.5
1058 58 6 278 3 3 2 1.066
1059 58 6 279 2 3 2 0.635
1060 58 7 280 2 1 0 1.144
1061 58 7 281 2 3 2 1.462
1062 58 7 282 2 3 2 0.81
1063 58 7 283 2 1 0 0.819
1064 58 7 284 2 2 1 0.813
1065 58 7 285 1 1 0 0.76
1066 58 7 286 2 3 2 1.46
1067 58 7 287 2 3 2 0.887
1068 58 7 288 2 3 2 0.575
1069 58 7 289 3 2 1 0.706
1070 58 7 290 3 2 1 0.624
1071 58 7 291 2 2 1 0.449
1072 58 7 292 1 1 0 1.048
1073 58 7 293 2 2 1 0.779
1074 58 7 294 3 1 0 1.062
1075 58 7 295 2 3 2 1.048
1076 58 7 296 3 3 2 2.298
1077 58 7 297 1 1 0 1.055
1078 58 7 298 2 2 1 0.801
1079 58 7 299 3 3 2 0.876
1080 58 7 300 1 1 0 0.708
1081 58 7 301 3 1 0 1.602
1082 58 7 302 3 2 1 0.912
1083 58 7 303 1 1 0 3.511
1084 58 7 304 2 2 1 0.689
1085 58 7 305 3 3 2 0.927
1086 58 7 306 3 1 0 3.83
1087 58 7 307 3 3 2 0.931
1088 58 7 308 2 2 1 0.634
1089 58 7 309 1 3 2 1.243
1090 58 7 310 3 1 0 0.806
1091 58 7 311 1 1 0 0.624
1092 58 7 312 3 1 0 0.593
1093 58 7 313 2 1 0 0.5
1094 58 7 314 1 3 0 0.473
1095 58 7 315 1 3 2 0.956
1096 58 7 316 2 3 2 1.105
1097 58 7 317 3 2 1 0.737
1098 58 7 318 3 3 2 1.198
1099 58 7 319 1 3 2 1.387
1100 59 0 0 1 3 2 1.529
1101 59 0 1 2 1 0 1.761
1102 59 0 2 2 2 1 1.05
1103 59 0 3 3 1 0 1.748
1104 59 0 4 3 3 0 1.557
1105 59 0 5 3 1 1 1.064
1106 59 0 6 2 1 1 2.757
1107 59 0 7 2 1 0 1.966
1108 59 0 8 3 3 2 1.381
1109 59 0 9 3 3 2 0.755
1110 59 0 10 3 1 0 1.551
1111 59 0 11 1 1 1 0.935
1112 59 0 12 1 2 1 1.033
1113 59 0 13 2 2 0 2.02
1114 59 0 14 1 2 0 2.575
1115 59 0 15 3 2 1 3.43
1116 59 0 16 3 2 1 2.651
1117 59 0 17 2 1 0 0.771
1118 59 0 18 3 3 2 0.935
1119 59 0 19 1 1 0 0.965
1120 59 0 20 2 2 1 0.803
1121 59 0 21 2 1 0 0.757
1122 59 0 22 1 3 2 0.625
1123 59 0 23 2 2 1 0.706
1124 59 0 24 3 1 0 1.152
1125 59 0 25 3 3 2 0.559
1126 59 0 26 3 1 1 0.81
1127 59 0 27 1 2 1 1.393
1128 59 0 28 2 3 0 1.414
1129 59 0 29 1 1 0 2.903
1130 59 0 30 3 1 2 2.55
1131 59 0 31 2 2 1 0.846
1132 59 0 32 3 3 2 0.927
1133 59 0 33 3 2 1 2.006
1134 59 0 34 1 1 0 0.749
1135 59 0 35 2 2 1 1.314
1136 59 0 36 2 2 1 1.459
1137 59 0 37 1 3 2 0.766
1138 59 0 38 3 3 2 0.619
1139 59 0 39 3 3 2 0.54
1140 59 1 40 3 1 0 0.944
1141 59 1 41 1 3 2 0.646
1142 59 1 42 2 2 1 0.679
1143 59 1 43 1 3 2 0.67
1144 59 1 44 2 3 2 0.557
1145 59 1 45 3 2 1 0.865
1146 59 1 46 1 3 0 2.417
1147 59 1 47 2 2 1 0.83
1148 59 1 48 1 1 0 0.887
1149 59 1 49 3 3 2 0.854
1150 59 1 50 2 3 2 1.078
1151 59 1 51 2 1 0 1.983
1152 59 1 52 2 3 2 0.944
1153 59 1 53 1 1 1 0.909
1154 59 1 54 1 1 0 1.432
1155 59 1 55 2 2 1 0.908
1156 59 1 56 1 1 0 5.571
1157 59 1 57 2 3 2 0.707
1158 59 1 58 3 2 1 1.281
1159 59 1 59 2 2 1 0.738
1160 59 1 60 3 1 0 1.102
1161 59 1 61 3 3 2 0.638
1162 59 1 62 1 1 0 1.502
1163 59 1 63 3 3 2 0.791
1164 59 1 64 3 1 0 1.09
1165 59 1 65 1 1 0 1.467
1166 59 1 66 2 2 1 0.805
1167 59 1 67 3 3 2 0.616
1168 59 1 68 1 2 1 1.882
1169 59 1 69 3 1 2 1.677
1170 59 1 70 2 2 1 3.669
1171 59 1 71 2 2 1 0.632
1172 59 1 72 2 2 1 1.969
1173 59 1 73 3 3 2 3.85
1174 59 1 74 1 3 2 1.072
1175 59 1 75 2 2 1 0.745
1176 59 1 76 1 1 0 0.957
1177 59 1 77 3 3 2 0.779
1178 59 1 78 2 1 1 1.166
1179 59 1 79 3 1 0 1.344
1180 59 2 80 1 2 1 1.145
1181 59 2 81 3 1 0 1
1182 59 2 82 2 1 0 1.395
1183 59 2 83 3 3 2 0.728
1184 59 2 84 3 1 0 0.838
1185 59 2 85 1 1 0 0.727
1186 59 2 86 2 1 0 0.925
1187 59 2 87 2 1 0 0.547
1188 59 2 88 3 1 0 1.607
1189 59 2 89 2 1 1 1.877
1190 59 2 90 2 2 1 0.597
1191 59 2 91 1 2 1 0.623
1192 59 2 92 1 2 1 0.456
1193 59 2 93 2 1 0 0.783
1194 59 2 94 1 3 2 1.003
1195 59 2 95 1 2 1 0.606
1196 59 2 96 1 2 1 0.568
1197 59 2 97 1 2 1 0.444
1198 59 2 98 1 3 2 1.403
1199 59 2 99 2 1 0 0.584
1200 59 2 100 1 3 2 0.715
1201 59 2 101 3 3 2 0.561
1202 59 2 102 1 3 2 0.637
1203 59 2 103 2 1 0 1.245
1204 59 2 104 2 1 0 0.607
1205 59 2 105 1 1 0 0.593
1206 59 2 106 1 1 0 0.451
1207 59 2 107 1 3 0 0.443
1208 59 2 108 1 1 2 1.223
1209 59 2 109 2 1 0 0.734
1210 59 2 110 3 2 1 1.131
1211 59 2 111 1 2 1 0.826
1212 59 2 112 3 1 0 1.124
1213 59 2 113 1 2 1 0.595
1214 59 2 114 2 2 1 1.862
1215 59 2 115 3 2 1 0.578
1216 59 2 116 1 1 0 0.589
1217 59 2 117 3 2 1 0.759
1218 59 2 118 2 3 2 2.083
1219 59 2 119 1 2 1 0.864
1220 59 3 120 3 1 0 3.008
1221 59 3 121 3 1 0 0.772
1222 59 3 122 1 3 2 1.264
1223 59 3 123 3 1 0 2.699
1224 59 3 124 1 1 0 0.793
1225 59 3 125 2 2 1 0.541
1226 59 3 126 2 3 2 3.008
1227 59 3 127 3 1 0 1.476
1228 59 3 128 3 1 0 0.759
1229 59 3 129 2 2 1 0.715
1230 59 3 130 3 1 0 0.889
1231 59 3 131 2 1 0 0.529
1232 59 3 132 3 3 2 0.685
1233 59 3 133 2 1 0 1.996
1234 59 3 134 2 2 1 0.764
1235 59 3 135 1 3 2 1.296
1236 59 3 136 2 3 2 0.705
1237 59 3 137 1 1 0 0.936
1238 59 3 138 1 2 1 0.566
1239 59 3 139 3 1 0 1.626
1240 59 3 140 3 3 2 0.743
1241 59 3 141 2 1 0 1.284
1242 59 3 142 1 2 1 0.534
1243 59 3 143 2 1 0 0.722
1244 59 3 144 1 1 0 0.784
1245 59 3 145 1 1 0 0.532
1246 59 3 146 3 1 0 0.576
1247 59 3 147 1 2 1 0.779
1248 59 3 148 3 2 1 0.607
1249 59 3 149 1 1 0 1.312
1250 59 3 150 3 1 0 1.313
1251 59 3 151 2 2 1 0.706
1252 59 3 152 3 2 1 0.472
1253 59 3 153 3 2 1 0.374
1254 59 3 154 1 1 0 0.585
1255 59 3 155 2 2 1 0.956
1256 59 3 156 1 1 0 0.553
1257 59 3 157 1 2 1 0.653
1258 59 3 158 2 3 2 0.869
1259 59 3 159 2 2 1 0.757
1260 59 4 160 3 3 2 0.832
1261 59 4 161 2 3 2 0.522
1262 59 4 162 3 3 2 0.542
1263 59 4 163 1 3 2 0.562
1264 59 4 164 2 3 2 0.582
1265 59 4 165 1 1 0 1.041
1266 59 4 166 1 3 2 0.931
1267 59 4 167 3 3 2 0.633
1268 59 4 168 3 2 1 0.618
1269 59 4 169 1 2 1 0.844
1270 59 4 170 2 2 1 1.485
1271 59 4 171 2 3 0 0.679
1272 59 4 172 1 2 1 0.778
1273 59 4 173 3 2 1 0.71
1274 59 4 174 1 1 0 1.132
1275 59 4 175 2 3 2 1.259
1276 59 4 176 3 1 0 0.934
1277 59 4 177 2 2 1 0.627
1278 59 4 178 1 3 2 0.797
1279 59 4 179 2 2 1 1.143
1280 59 4 180 1 1 0 2.086
1281 59 4 181 1 1 0 1.322
1282 59 4 182 3 3 2 1.083
1283 59 4 183 2 3 2 0.795
1284 59 4 184 3 3 2 0.838
1285 59 4 185 1 1 0 1.751
1286 59 4 186 1 2 1 0.712
1287 59 4 187 1 2 1 0.862
1288 59 4 188 1 1 0 1.215
1289 59 4 189 3 3 2 0.675
1290 59 4 190 3 2 1 0.858
1291 59 4 191 1 1 0 2.707
1292 59 4 192 1 3 2 0.921
1293 59 4 193 2 1 0 1.416
1294 59 4 194 2 2 1 0.612
1295 59 4 195 2 1 0 3.038
1296 59 4 196 2 2 2 1.672
1297 59 4 197 2 1 0 2.391
1298 59 4 198 1 2 1 5.754
1299 59 4 199 1 3 2 1.883
1300 59 5 200 1 1 0 2.305
1301 59 5 201 1 2 1 1.59
1302 59 5 202 3 2 1 0.845
1303 59 5 203 1 1 0 1.897
1304 59 5 204 2 2 1 0.788
1305 59 5 205 1 3 2 0.871
1306 59 5 206 1 1 0 1.151
1307 59 5 207 2 3 2 0.933
1308 59 5 208 3 1 0 1.003
1309 59 5 209 1 3 2 0.975
1310 59 5 210 3 3 2 0.651
1311 59 5 211 2 2 1 0.723
1312 59 5 212 1 1 0 1.112
1313 59 5 213 1 1 0 0.824
1314 59 5 214 1 2 1 0.666
1315 59 5 215 3 3 2 0.929
1316 59 5 216 2 2 1 0.735
1317 59 5 217 3 1 0 1.244
1318 59 5 218 1 2 1 0.834
1319 59 5 219 3 1 0 1.74
1320 59 5 220 3 1 0 0.837
1321 59 5 221 1 2 1 1.542
1322 59 5 222 3 3 2 1.207
1323 59 5 223 1 3 2 0.811
1324 59 5 224 3 2 1 0.765
1325 59 5 225 2 1 0 2.497
1326 59 5 226 1 3 2 1.127
1327 59 5 227 1 1 0 0.942
1328 59 5 228 2 2 1 1.18
1329 59 5 229 1 1 0 1.497
1330 59 5 230 3 3 2 2.995
1331 59 5 231 2 2 1 0.719
1332 59 5 232 1 3 2 0.925
1333 59 5 233 1 1 0 3.275
1334 59 5 234 1 3 2 2.013
1335 59 5 235 2 2 1 0.716
1336 59 5 236 2 3 2 2.858
1337 59 5 237 2 1 0 0.866
1338 59 5 238 1 1 0 7.067
1339 59 5 239 3 2 1 0.766
1340 59 6 240 3 3 2 0.859
1341 59 6 241 3 2 1 1.5
1342 59 6 242 3 2 1 0.613
1343 59 6 243 3 3 2 0.775
1344 59 6 244 1 2 0 0.643
1345 59 6 245 1 3 2 0.911
1346 59 6 246 3 2 1 0.662
1347 59 6 247 2 2 1 0.718
1348 59 6 248 1 2 1 0.604
1349 59 6 249 3 2 1 0.478
1350 59 6 250 3 2 1 0.396
1351 59 6 251 2 1 0 0.646
1352 59 6 252 3 2 1 0.718
1353 59 6 253 2 3 0 0.58
1354 59 6 254 2 2 1 1.458
1355 59 6 255 2 3 2 1.309
1356 59 6 256 3 2 1 0.574
1357 59 6 257 2 2 1 0.665
1358 59 6 258 1 1 0 0.841
1359 59 6 259 2 2 1 0.762
1360 59 6 260 1 2 1 0.638
1361 59 6 261 3 3 2 1.983
1362 59 6 262 1 2 1 3.271
1363 59 6 263 3 2 1 0.762
1364 59 6 264 3 2 1 1.038
1365 59 6 265 3 1 0 0.912
1366 59 6 266 2 1 0 0.647
1367 59 6 267 2 2 1 0.668
1368 59 6 268 2 3 2 0.98
1369 59 6 269 2 2 1 0.736
1370 59 6 270 1 1 0 1.077
1371 59 6 271 2 3 0 1.366
1372 59 6 272 2 2 1 0.833
1373 59 6 273 3 3 2 1.066
1374 59 6 274 3 2 1 0.588
1375 59 6 275 2 3 2 0.854
1376 59 6 276 2 2 1 0.927
1377 59 6 277 1 2 1 1.773
1378 59 6 278 3 3 2 1.013
1379 59 6 279 3 3 2 0.505
1380 59 7 280 3 1 2 0.919
1381 59 7 281 2 2 1 0.569
1382 59 7 282 1 1 0 0.741
1383 59 7 283 3 1 1 0.53
