datID sessionID block trial correctResp resp rt
1 438 0 0 3 2 2.367
2 438 0 1 6 6 1.473
3 438 0 2 4 3 2.147
4 438 0 3 6 6 4.408
5 438 0 4 7 8 1.599
6 438 0 5 3 2 1.63
7 438 0 6 7 8 3.355
8 438 0 7 6 6 4.339
9 438 0 8 7 7 0.967
10 438 0 9 2 2 2.536
11 438 0 10 1 1 0.905
12 438 0 11 4 3 3.772
13 438 0 12 3 3 0.735
14 438 0 13 1 1 0.936
15 438 0 14 6 5 10.555
16 438 0 15 1 1 0.865
17 438 0 16 4 4 2.294
18 438 0 17 6 6 1.224
19 438 0 18 2 2 1.751
20 438 0 19 2 2 0.568
21 438 0 20 7 7 2.889
22 438 0 21 7 8 0.812
23 438 0 22 5 5 2.178
24 438 0 23 1 1 1.304
25 438 0 24 4 5 2.145
26 438 0 25 6 7 1.374
27 438 0 26 5 4 1.307
28 438 0 27 3 3 2.565
29 438 0 28 7 8 4.582
30 438 0 29 1 1 1.327
31 438 0 30 3 2 7.217
32 438 0 31 6 7 2.004
33 438 0 32 6 6 0.875
34 438 0 33 3 3 3.029
35 438 0 34 5 6 1.623
36 438 0 35 3 2 2.062
37 438 0 36 5 5 1.5
38 438 0 37 1 1 0.904
39 438 0 38 7 8 4.586
40 438 0 39 2 2 1.81
41 438 0 40 3 3 1.535
42 438 0 41 2 2 0.922
43 438 0 42 5 5 1.292
44 438 0 43 7 7 1.632
45 438 0 44 4 3 2.454
46 438 0 45 1 1 0.792
47 438 0 46 3 3 1.359
48 438 0 47 8 8 2.416
49 438 0 48 1 1 1.223
50 438 0 49 8 8 0.509
51 438 0 50 7 7 2.095
52 438 0 51 5 5 1.202
53 438 0 52 4 4 1.428
54 438 0 53 2 2 4.927
55 438 0 54 5 4 1.928
56 438 0 55 1 1 0.714
57 438 0 56 2 3 1.321
58 438 0 57 5 5 4.076
59 438 0 58 2 2 2.304
60 438 0 59 1 1 0.378
61 438 0 60 8 8 3.011
62 438 0 61 6 7 2.349
63 438 0 62 5 4 1.224
64 438 0 63 6 6 7.833
65 438 0 64 6 6 0.434
66 438 0 65 6 6 0.349
67 438 0 66 1 1 0.79
68 438 0 67 4 4 8.637
69 438 0 68 2 2 1.785
70 438 0 69 6 6 2.105
71 438 0 70 2 2 1.243
72 438 0 71 5 5 1.969
73 438 0 72 7 7 2.169
74 438 0 73 4 4 4.122
75 438 0 74 1 1 0.668
76 438 0 75 8 8 1.512
77 438 0 76 2 2 2.817
78 438 0 77 6 7 2.442
79 438 0 78 1 1 0.748
80 438 0 79 6 7 1.91
81 438 1 0 1 1 0.878
82 438 1 1 7 6 3.534
83 438 1 2 3 3 2.833
84 438 1 3 6 6 3.906
85 438 1 4 6 6 0.481
86 438 1 5 7 7 0.806
87 438 1 6 5 5 1.911
88 438 1 7 4 4 0.838
89 438 1 8 6 6 3.419
90 438 1 9 1 1 0.746
91 438 1 10 1 1 0.482
92 438 1 11 5 5 1.798
93 438 1 12 4 4 0.982
94 438 1 13 7 7 1.697
95 438 1 14 6 6 0.695
96 438 1 15 3 3 2.805
97 438 1 16 7 7 2.076
98 438 1 17 4 3 1.551
99 438 1 18 4 4 1.645
100 438 1 19 8 8 1.519
101 438 1 20 1 1 0.701
102 438 1 21 8 8 0.787
103 438 1 22 1 1 0.528
104 438 1 23 4 4 2.131
105 438 1 24 4 4 0.452
106 438 1 25 5 5 1.168
107 438 1 26 2 2 4.815
108 438 1 27 6 6 2.199
109 438 1 28 1 1 0.645
110 438 1 29 4 4 4.656
111 438 1 30 7 7 3.26
112 438 1 31 5 5 3.875
113 438 1 32 6 6 0.753
114 438 1 33 3 3 2.074
115 438 1 34 3 3 0.829
116 438 1 35 3 3 0.468
117 438 1 36 8 8 2.088
118 438 1 37 6 5 3.355
119 438 1 38 1 1 0.735
120 438 1 39 3 3 1.719
121 438 1 40 2 2 0.699
122 438 1 41 4 3 1.783
123 438 1 42 2 2 0.743
124 438 1 43 6 6 3.328
125 438 1 44 5 5 0.681
126 438 1 45 1 1 0.647
127 438 1 46 2 2 1.05
128 438 1 47 2 2 0.711
129 438 1 48 5 5 2.929
130 438 1 49 1 1 0.547
131 438 1 50 2 2 4.228
132 438 1 51 8 8 1.907
133 438 1 52 6 6 1.486
134 438 1 53 6 5 0.537
135 438 1 54 4 3 1.034
136 438 1 55 8 8 2.621
137 438 1 56 3 3 2.978
138 438 1 57 8 8 2.232
139 438 1 58 1 1 0.661
140 438 1 59 6 7 2.21
141 438 1 60 1 1 1.22
142 438 1 61 6 6 2.478
143 438 1 62 4 4 3.569
144 438 1 63 4 4 0.665
145 438 1 64 6 5 8.268
146 438 1 65 4 4 0.794
147 438 1 66 8 8 1.531
148 438 1 67 8 8 0.617
149 438 1 68 4 4 3.593
150 438 1 69 8 8 1.547
151 438 1 70 4 4 2.185
152 438 1 71 5 5 1.271
153 438 1 72 7 8 1.292
154 438 1 73 3 3 1.712
155 438 1 74 4 4 0.588
156 438 1 75 7 7 2.556
157 438 1 76 3 3 7.479
158 438 1 77 1 1 0.568
159 438 1 78 8 8 13.24
160 438 1 79 2 2 1.486
161 438 2 0 8 8 1.502
162 438 2 1 4 4 1.37
163 438 2 2 5 5 1
164 438 2 3 5 5 0.585
165 438 2 4 3 3 1.273
166 438 2 5 3 3 0.509
167 438 2 6 8 7 2.506
168 438 2 7 1 2 1.375
169 438 2 8 3 3 2.07
170 438 2 9 4 4 1.124
171 438 2 10 7 7 1.632
172 438 2 11 2 2 1.287
173 438 2 12 3 3 2.996
174 438 2 13 8 8 1.241
175 438 2 14 8 8 0.606
176 438 2 15 4 4 2.365
177 438 2 16 7 7 2.1
178 438 2 17 4 4 2.152
179 438 2 18 7 7 1.258
180 438 2 19 7 7 2.201
181 438 2 20 1 1 0.733
182 438 2 21 7 7 0.775
183 438 2 22 4 4 3.534
184 438 2 23 3 3 2.184
185 438 2 24 6 7 2.224
186 438 2 25 2 2 1.217
187 438 2 26 4 4 3.843
188 438 2 27 5 6 1.653
189 438 2 28 4 4 1.477
190 438 2 29 3 3 0.913
191 438 2 30 5 5 5.955
192 438 2 31 4 3 0.892
193 438 2 32 7 7 1.544
194 438 2 33 3 3 2.356
195 438 2 34 6 6 2.331
196 438 2 35 2 2 1.095
197 438 2 36 7 7 1.521
198 438 2 37 6 6 1.243
199 438 2 38 4 4 1.949
200 438 2 39 5 5 0.682
201 438 2 40 7 8 1.606
202 438 2 41 7 7 0.736
203 438 2 42 6 6 0.761
204 438 2 43 8 8 1.43
205 438 2 44 1 1 0.645
206 438 2 45 2 2 1.18
207 438 2 46 6 6 2.243
208 438 2 47 6 6 0.561
209 438 2 48 4 3 1.842
210 438 2 49 5 5 2.704
211 438 2 50 1 1 0.585
212 438 2 51 5 5 1.088
213 438 2 52 8 8 2.723
214 438 2 53 4 4 1.591
215 438 2 54 5 5 1.251
216 438 2 55 2 2 2.189
217 438 2 56 8 8 1.96
218 438 2 57 6 6 4.617
219 438 2 58 7 7 0.91
220 438 2 59 1 1 0.661
221 438 2 60 5 5 4.045
222 438 2 61 2 2 0.898
223 438 2 62 8 8 1.603
224 438 2 63 6 6 2.479
225 438 2 64 6 5 0.94
226 438 2 65 8 8 1.214
227 438 2 66 5 4 3.221
228 438 2 67 6 6 2.174
229 438 2 68 2 2 1.729
230 438 2 69 5 5 1.518
231 438 2 70 7 7 1.72
232 438 2 71 6 7 1.691
233 438 2 72 5 5 2.769
234 438 2 73 8 8 1.048
235 438 2 74 6 6 2.551
236 438 2 75 4 4 2.493
237 438 2 76 5 5 1.065
238 438 2 77 7 7 2.15
239 438 2 78 2 2 1.414
240 438 2 79 1 1 0.598
241 439 0 0 7 6 2.284
242 439 0 1 4 4 1.49
243 439 0 2 6 5 0.849
244 439 0 3 7 6 1.142
245 439 0 4 5 5 0.954
246 439 0 5 6 6 1.085
247 439 0 6 2 2 1.893
248 439 0 7 8 8 1.742
249 439 0 8 2 1 0.735
250 439 0 9 4 4 1.326
251 439 0 10 8 8 2.512
252 439 0 11 3 2 1.074
253 439 0 12 7 7 2.814
254 439 0 13 7 7 0.645
255 439 0 14 7 7 0.418
256 439 0 15 8 8 0.762
257 439 0 16 2 2 2.434
258 439 0 17 6 7 1.48
259 439 0 18 5 3 2.42
260 439 0 19 6 6 1.801
261 439 0 20 8 8 1.078
262 439 0 21 1 1 1.33
263 439 0 22 7 7 1.776
264 439 0 23 6 7 1.362
265 439 0 24 8 8 0.768
266 439 0 25 7 7 2.676
267 439 0 26 7 7 0.606
268 439 0 27 7 7 0.38
269 439 0 28 1 1 1.316
270 439 0 29 1 1 0.472
271 439 0 30 5 4 2.075
272 439 0 31 6 6 0.953
273 439 0 32 6 6 0.525
274 439 0 33 7 7 0.955
275 439 0 34 5 5 1.306
276 439 0 35 5 5 0.444
277 439 0 36 6 6 0.755
278 439 0 37 7 7 1.333
279 439 0 38 5 4 1.205
280 439 0 39 4 4 1.332
281 439 0 40 6 6 2.406
282 439 0 41 4 4 1.036
283 439 0 42 5 5 0.57
284 439 0 43 8 8 1.662
285 439 0 44 1 1 1.116
286 439 0 45 5 6 3.112
287 439 0 46 1 1 0.973
288 439 0 47 3 2 1.66
289 439 0 48 5 4 1.116
290 439 0 49 6 6 0.813
291 439 0 50 8 8 1.171
292 439 0 51 2 2 1.371
293 439 0 52 1 1 0.683
294 439 0 53 7 7 1.752
295 439 0 54 1 1 1.145
296 439 0 55 2 2 0.947
297 439 0 56 2 2 0.468
298 439 0 57 1 1 0.47
299 439 0 58 4 5 1.036
300 439 0 59 6 5 1.721
301 439 0 60 1 1 1.05
302 439 0 61 2 2 0.966
303 439 0 62 4 4 1.576
304 439 0 63 3 2 0.51
305 439 0 64 7 6 1.855
306 439 0 65 7 7 0.712
307 439 0 66 8 8 0.64
308 439 0 67 3 3 1.52
309 439 0 68 8 8 1.721
310 439 0 69 4 3 2.604
311 439 0 70 6 6 2.117
312 439 0 71 4 4 1.504
313 439 0 72 8 8 1.164
314 439 0 73 8 8 0.645
315 439 0 74 7 6 0.944
316 439 0 75 6 5 0.769
317 439 0 76 3 3 1.518
318 439 0 77 3 3 0.456
319 439 0 78 1 1 1.07
320 439 0 79 2 2 0.699
321 439 1 0 6 4 3.645
322 439 1 1 4 3 0.878
323 439 1 2 5 5 1.005
324 439 1 3 5 5 0.523
325 439 1 4 8 8 1.886
326 439 1 5 4 3 2.745
327 439 1 6 8 8 1.126
328 439 1 7 4 3 1.265
329 439 1 8 3 3 0.446
330 439 1 9 5 5 2.053
331 439 1 10 2 2 1.608
332 439 1 11 7 7 1.44
333 439 1 12 3 2 1.198
334 439 1 13 5 5 1.605
335 439 1 14 1 1 0.923
336 439 1 15 8 8 1.595
337 439 1 16 3 3 2.438
338 439 1 17 4 4 0.777
339 439 1 18 3 3 1.184
340 439 1 19 6 6 1.638
341 439 1 20 4 4 1.763
342 439 1 21 4 4 0.539
343 439 1 22 1 1 1.07
344 439 1 23 1 1 0.425
345 439 1 24 6 6 1.455
346 439 1 25 6 6 0.461
347 439 1 26 4 4 1.473
348 439 1 27 6 7 0.861
349 439 1 28 7 7 0.526
350 439 1 29 2 2 1.392
351 439 1 30 3 3 0.703
352 439 1 31 8 8 1.786
353 439 1 32 7 7 1.045
354 439 1 33 2 2 1.237
355 439 1 34 2 2 0.427
356 439 1 35 7 7 3.169
357 439 1 36 5 5 1.322
358 439 1 37 1 1 1.131
359 439 1 38 7 8 1.317
360 439 1 39 6 6 1.028
361 439 1 40 4 4 1.523
362 439 1 41 1 1 0.957
363 439 1 42 4 4 2.158
364 439 1 43 8 8 1.679
365 439 1 44 6 5 3.347
366 439 1 45 5 5 0.551
367 439 1 46 6 7 0.887
368 439 1 47 8 8 0.827
369 439 1 48 5 5 0.737
370 439 1 49 5 6 0.538
371 439 1 50 2 2 1.206
372 439 1 51 4 5 1.73
373 439 1 52 5 5 0.493
374 439 1 53 4 3 2.001
375 439 1 54 2 2 1.159
376 439 1 55 4 4 1.071
377 439 1 56 1 1 0.875
378 439 1 57 2 2 0.83
379 439 1 58 6 6 11.347
380 439 1 59 2 2 1.188
381 439 1 60 3 3 1.388
382 439 1 61 6 6 2.222
383 439 1 62 5 4 1.623
384 439 1 63 4 4 0.809
385 439 1 64 8 8 1.12
386 439 1 65 8 8 0.426
387 439 1 66 1 1 0.991
388 439 1 67 3 3 0.912
389 439 1 68 4 4 0.659
390 439 1 69 4 4 0.527
391 439 1 70 6 7 2.033
392 439 1 71 5 5 1.586
393 439 1 72 2 2 1.242
394 439 1 73 5 6 1.071
395 439 1 74 8 7 1.783
396 439 1 75 6 6 0.826
397 439 1 76 1 1 1.008
398 439 1 77 3 3 1.145
399 439 1 78 4 4 1
400 439 1 79 2 2 1.538
401 439 2 0 2 2 1.582
402 439 2 1 3 3 0.721
403 439 2 2 7 7 2.025
404 439 2 3 8 8 0.576
405 439 2 4 3 2 1.322
406 439 2 5 1 1 0.561
407 439 2 6 1 1 0.426
408 439 2 7 7 8 1.601
409 439 2 8 2 3 2.111
410 439 2 9 3 3 0.535
411 439 2 10 3 3 0.419
412 439 2 11 8 7 2.922
413 439 2 12 8 8 0.628
414 439 2 13 1 1 0.964
415 439 2 14 7 7 1.62
416 439 2 15 8 8 0.554
417 439 2 16 3 3 1.564
418 439 2 17 5 6 1.316
419 439 2 18 4 5 1.114
420 439 2 19 5 5 0.552
421 439 2 20 2 2 1.297
422 439 2 21 5 6 1.284
423 439 2 22 6 6 0.78
424 439 2 23 6 5 0.403
425 439 2 24 7 7 1.015
426 439 2 25 1 1 0.902
427 439 2 26 2 2 1.261
428 439 2 27 5 5 5.471
429 439 2 28 5 5 0.448
430 439 2 29 5 5 0.369
431 439 2 30 4 3 2.136
432 439 2 31 4 4 0.671
433 439 2 32 1 1 1.04
434 439 2 33 3 4 0.775
435 439 2 34 1 1 0.686
436 439 2 35 2 2 0.986
437 439 2 36 6 5 1.386
438 439 2 37 7 7 3.402
439 439 2 38 5 4 1.929
440 439 2 39 5 5 0.828
441 439 2 40 8 8 1.169
442 439 2 41 1 1 0.954
443 439 2 42 5 4 4.155
444 439 2 43 5 5 0.642
445 439 2 44 2 2 2.356
446 439 2 45 7 7 1.653
447 439 2 46 7 7 0.581
448 439 2 47 6 6 0.767
449 439 2 48 5 5 0.891
450 439 2 49 1 1 1.023
451 439 2 50 6 6 2.348
452 439 2 51 8 8 0.876
453 439 2 52 8 8 0.51
454 439 2 53 8 7 0.522
455 439 2 54 2 2 2.042
456 439 2 55 3 3 2.735
457 439 2 56 1 1 0.986
458 439 2 57 2 3 0.805
459 439 2 58 4 4 1.233
460 439 2 59 3 3 1.084
461 439 2 60 5 5 1.591
462 439 2 61 6 6 0.879
463 439 2 62 5 4 0.834
464 439 2 63 3 3 1.365
465 439 2 64 4 4 0.742
466 439 2 65 7 7 1.344
467 439 2 66 8 8 1.261
468 439 2 67 6 4 1.43
469 439 2 68 8 8 1.186
470 439 2 69 3 3 2.139
471 439 2 70 1 1 1.12
472 439 2 71 3 3 1.394
473 439 2 72 2 2 0.528
474 439 2 73 6 6 1.427
475 439 2 74 2 2 2.992
476 439 2 75 8 8 1.439
477 439 2 76 1 1 0.941
478 439 2 77 3 3 1.061
479 439 2 78 3 3 0.421
480 439 2 79 6 6 2.484
